ACC_X,ACC_Y,ACC_Z
0.89064306,-0.5351041,10.0903635
0.9816227,-0.50637364,10.093954
0.93972415,-0.521936,10.184934
0.973243,-0.5255273,10.20289
0.9888053,-0.50517654,10.157401
0.93493575,-0.50038815,10.067618
1.0115502,-0.48602295,10.156203
1.1025299,-0.47764325,10.127473
1.1013328,-0.51595044,10.158598
1.0929531,-0.50757074,10.110714
1.0522517,-0.5434838,10.089166
0.9900024,-0.50996494,10.180145
1.0139444,-0.50876784,10.168175
0.9923966,-0.47764325,10.104729
0.9792285,-0.48841715,10.0269165
1.0115502,-0.5267244,10.139444
1.0594343,-0.49799395,10.149021
1.0342951,-0.47405192,10.078392
0.92655605,-0.48123455,10.109517
0.9636662,-0.50637364,10.181343
1.1264719,-0.59495914,10.16578
1.3215994,-0.5626374,10.159795
1.3742718,-0.51355624,10.0341
1.1803415,-0.51595044,10.047267
0.8822633,-0.50637364,10.120291
0.62488663,-0.5363012,10.247183
0.5602432,-0.50637364,10.196905
0.60453594,-0.521936,10.177752
0.5746084,-0.5554548,10.212467
0.59376204,-0.50397944,10.263943
0.58538234,-0.51235914,10.184934
0.5674258,-0.5422867,10.110714
0.6464345,-0.5793968,10.15381
0.6979098,-0.58657944,10.163386
0.6512229,-0.545878,10.105926
0.6631939,-0.50517654,10.193314
0.545878,-0.51595044,10.192117
0.4321534,-0.5542577,10.218452
0.38187516,-0.557849,10.171766
0.36272156,-0.5327099,10.200497
0.4141969,-0.5327099,10.218452
0.5590461,-0.5422867,10.205285
0.56982,-0.5722142,10.134656
0.50876784,-0.59256494,10.159795
0.4309563,-0.5363012,10.097546
0.49919105,-0.5398925,10.1861315
0.5291186,-0.48841715,10.188525
0.51355624,-0.47285482,10.177752
0.5494693,-0.5255273,10.157401
0.49799395,-0.5518635,10.368091
0.5530606,-0.49559975,10.195708
0.5758055,-0.51595044,10.061633
0.62129533,-0.56982,10.223241
0.6967127,-0.5566519,10.220847
0.80564886,-0.5386954,10.092757
0.7302315,-0.49200845,10.192117
0.6811504,-0.48362875,10.181343
0.7206547,-0.5291186,10.231621
0.79607207,-0.58538234,10.206482
0.91817635,-0.59376204,10.156203
0.90740246,-0.5446809,10.144233
0.92775315,-0.5279215,10.087969
0.9888053,-0.5506664,10.129868
1.0462662,-0.545878,10.230424
1.0175357,-0.5793968,10.087969
0.9983821,-0.5638345,10.149021
0.9756372,-0.557849,10.19092
0.973243,-0.5279215,10.125079
0.9911995,-0.5446809,10.199299
0.9864111,-0.533907,10.163386
0.9708488,-0.5386954,10.141838
0.9983821,-0.58418524,10.128671
1.0283096,-0.5662287,10.158598
1.067814,-0.5374983,10.107122
1.0510546,-0.5446809,10.143036
1.009156,-0.5530606,10.093954
0.9540894,-0.5638345,10.119094
0.9588778,-0.5566519,10.157401
1.0474633,-0.5506664,10.143036
1.0761937,-0.5267244,10.125079
0.9864111,-0.5770026,10.111911
0.93254155,-0.5554548,10.176555
0.94690675,-0.581791,10.147824
0.9864111,-0.5482722,10.127473
0.9696517,-0.5614403,10.116699
0.9792285,-0.5590461,10.13705
0.9768343,-0.5315128,10.152613
0.9588778,-0.5542577,10.085575
0.93134445,-0.5410896,10.109517
0.94570965,-0.5542577,10.19451
1.0151415,-0.5434838,10.158598
0.9816227,-0.5422867,10.115502
0.9911995,-0.5482722,10.120291
0.92057055,-0.52073884,10.200497
0.92535895,-0.5542577,10.139444
0.92416185,-0.5446809,10.143036
0.9768343,-0.5351041,10.140641
0.94810385,-0.5530606,10.151415
0.94092125,-0.5530606,10.104729
0.9576807,-0.5386954,10.141838
0.9588778,-0.5494693,10.16578
1.0055647,-0.545878,10.146626
0.9672575,-0.52073884,10.132261
0.9636662,-0.5446809,10.152613
0.94451255,-0.5470751,10.144233
0.9528923,-0.5303157,10.128671
0.8631097,-0.5363012,10.192117
0.91817635,-0.5722142,10.157401
0.9935937,-0.5650316,10.159795
1.0175357,-0.5602432,10.121488
0.9876082,-0.5494693,10.132261
0.9900024,-0.5734113,10.192117
0.9804256,-0.533907,10.1861315
0.9888053,-0.5482722,10.102334
0.9696517,-0.5626374,10.140641
1.0175357,-0.58777654,10.133459
1.0426749,-0.56982,10.120291
1.0354922,-0.5446809,10.139444
0.9564836,-0.59256494,10.141838
0.93493575,-0.5398925,10.232818
0.9648633,-0.51714754,10.07121
0.9888053,-0.5434838,10.127473
0.9816227,-0.59376204,10.198102
1.0271125,-0.5781997,10.168175
1.0342951,-0.5650316,10.125079
1.0271125,-0.5410896,10.120291
0.9983821,-0.5590461,10.129868
1.0115502,-0.5506664,10.16578
1.0079589,-0.51954174,10.107122
0.9648633,-0.5398925,10.146626
0.9792285,-0.58657944,10.169372
0.9995792,-0.58777654,10.188525
0.9935937,-0.5554548,10.075998
1.0342951,-0.5374983,10.103531
1.0283096,-0.5662287,10.172963
0.9900024,-0.5470751,10.072407
0.9995792,-0.5686229,10.0987425
0.9959879,-0.5758055,10.147824
0.9528923,-0.545878,10.1861315
0.93014735,-0.5518635,10.15381
0.93972415,-0.5554548,10.170568
0.985214,-0.5566519,10.181343
1.0690111,-0.5327099,10.149021
1.0319009,-0.5327099,10.126276
0.985214,-0.5243302,10.109517
0.93373865,-0.5410896,10.230424
1.246182,-0.5267244,10.1226845
1.2246342,-0.5542577,10.103531
1.2138603,-0.5482722,10.067618
1.0941502,-0.664391,10.17416
0.9911995,-0.6392518,10.151415
0.9959879,-0.5243302,10.120291
1.0486604,-0.49559975,10.196905
1.091756,-0.5279215,10.15381
1.103727,-0.5530606,10.03769
1.0247183,-0.58538234,10.14543
1.0342951,-0.557849,10.225636
1.0259154,-0.5267244,10.133459
0.94451255,-0.51235914,10.119094
0.9828198,-0.5386954,10.195708
1.0390835,-0.5566519,10.160992
1.2617443,-0.5805939,10.134656
1.2880806,-0.5410896,10.043676
1.1659763,-0.5434838,10.011354
1.0031705,-0.5554548,10.102334
0.9576807,-0.63087213,10.201694
1.0666169,-0.60214174,10.1143055
1.1348516,-0.51714754,10.081984
1.0714053,-0.51834464,10.111911
1.0115502,-0.5446809,10.141838
0.9744401,-0.5710171,10.163386
1.033098,-0.58777654,10.135853
1.1049241,-0.5674258,10.156203
1.0809821,-0.5398925,10.139444
1.0486604,-0.5566519,10.151415
0.9983821,-0.5602432,10.108319
0.9983821,-0.5291186,10.133459
1.043872,-0.5482722,10.17416
1.0139444,-0.5638345,10.102334
1.0235212,-0.5374983,10.127473
1.0510546,-0.5638345,10.158598
1.1252748,-0.5386954,10.089166
1.067814,-0.5398925,10.1382475
0.9900024,-0.5710171,10.133459
0.9504981,-0.58897364,10.199299
0.9983821,-0.5614403,10.151415
1.0259154,-0.5231331,10.164583
1.021127,-0.5734113,10.152613
1.0606314,-0.581791,10.107122
1.0223241,-0.5470751,10.133459
0.93972415,-0.5267244,10.187328
0.91338795,-0.5231331,10.150218
0.9744401,-0.5470751,10.225636
1.0546459,-0.59136784,10.111911
1.0342951,-0.5386954,10.103531
0.94570965,-0.5470751,10.171766
0.93493575,-0.5446809,10.176555
0.93254155,-0.5530606,10.096349
1.0007763,-0.5566519,10.18254
1.0067618,-0.5614403,10.133459
0.9816227,-0.5398925,10.15381
0.93613285,-0.5638345,10.200497
0.9888053,-0.5590461,10.1621895
1.009156,-0.5542577,10.113108
0.9516952,-0.5303157,10.155006
0.94211835,-0.5506664,10.175357
0.9947908,-0.5626374,10.123882
0.9864111,-0.5422867,10.132261
0.9552865,-0.5686229,10.141838
0.9720459,-0.5386954,10.147824
0.9900024,-0.557849,10.13705
0.9911995,-0.5494693,10.127473
0.9684546,-0.5410896,10.151415
0.9792285,-0.5758055,10.168175
0.9983821,-0.5351041,10.133459
0.9576807,-0.5291186,10.109517
0.94930094,-0.5602432,10.151415
1.0127473,-0.5614403,10.171766
1.009156,-0.5614403,10.177752
0.973243,-0.5674258,10.123882
0.9552865,-0.5351041,10.13705
0.9792285,-0.5422867,10.164583
0.93493575,-0.5303157,10.143036
0.93972415,-0.5482722,10.140641
0.9744401,-0.58777654,10.171766
1.0402806,-0.5734113,10.126276
0.9900024,-0.5279215,10.111911
0.9828198,-0.557849,10.156203
0.94810385,-0.5602432,10.134656
0.93014735,-0.5518635,10.127473
0.9528923,-0.5434838,10.160992
0.9720459,-0.545878,10.146626
1.0043676,-0.5518635,10.121488
1.0007763,-0.5542577,10.152613
0.9816227,-0.5566519,10.169372
0.973243,-0.5542577,10.171766
0.94211835,-0.5518635,10.075998
0.9552865,-0.5530606,10.1621895
0.9959879,-0.5602432,10.14543
1.0079589,-0.5566519,10.110714
0.9588778,-0.5446809,10.152613
0.9756372,-0.5614403,10.163386
0.9840169,-0.5494693,10.15381
0.94570965,-0.5291186,10.170568
0.9636662,-0.5482722,10.149021
0.985214,-0.5650316,10.160992
0.997185,-0.5674258,10.109517
0.9876082,-0.5506664,10.157401
1.0295067,-0.533907,10.175357
1.0223241,-0.5554548,10.105926
0.9828198,-0.5542577,10.155006
0.9947908,-0.5674258,10.144233
0.9864111,-0.5434838,10.158598
0.973243,-0.5398925,10.183737
0.9768343,-0.5566519,10.19092
1.0151415,-0.5590461,10.144233
0.9995792,-0.5674258,10.121488
0.9708488,-0.557849,10.188525
0.94570965,-0.5638345,10.172963
0.9576807,-0.5494693,10.131064
0.9995792,-0.5518635,10.159795
1.0881647,-0.5662287,10.164583
1.0749966,-0.5554548,10.123882
1.0103531,-0.5554548,10.097546
0.93254155,-0.56982,10.225636
0.92655605,-0.5662287,10.204087
0.9576807,-0.5662287,10.108319
0.9720459,-0.5662287,10.1226845
0.9780314,-0.5482722,10.177752
0.9564836,-0.5422867,10.129868
0.9840169,-0.5422867,10.147824
0.9564836,-0.5327099,10.103531
0.9564836,-0.5542577,10.152613
1.0055647,-0.5662287,10.160992
0.9947908,-0.5530606,10.113108
0.9923966,-0.5650316,10.13705
1.0199299,-0.5590461,10.17416
1.0163386,-0.521936,10.131064
0.9636662,-0.50517654,10.159795
0.9540894,-0.5494693,10.199299
0.9756372,-0.5554548,10.159795
1.0175357,-0.5315128,10.111911
1.0187328,-0.5710171,10.172963
0.9923966,-0.5482722,10.144233
0.9504981,-0.5446809,10.064027
0.9768343,-0.5650316,10.177752
1.0007763,-0.5530606,10.159795
0.9660604,-0.545878,10.134656
0.9876082,-0.557849,10.168175
0.9720459,-0.5542577,10.149021
0.9660604,-0.5542577,10.147824
0.9923966,-0.5554548,10.140641
0.9959879,-0.5303157,10.1621895
0.9672575,-0.5422867,10.135853
0.9588778,-0.5614403,10.16578
0.9888053,-0.5494693,10.146626
0.9768343,-0.5781997,10.171766
0.9828198,-0.5542577,10.155006
0.9804256,-0.5363012,10.1621895
0.9672575,-0.5363012,10.135853
0.9876082,-0.5674258,10.141838
0.9888053,-0.5710171,10.131064
0.985214,-0.5494693,10.135853
0.94930094,-0.5434838,10.159795
0.93014735,-0.5494693,10.178948
1.0019734,-0.5650316,10.170568
1.0115502,-0.5626374,10.147824
1.009156,-0.5518635,10.1621895
0.9540894,-0.533907,10.144233
0.9768343,-0.5518635,10.171766
0.92775315,-0.5410896,10.113108
0.92535895,-0.5446809,10.158598
0.9516952,-0.5686229,10.172963
1.0666169,-0.5686229,10.159795
1.0366893,-0.5351041,10.135853
0.93014735,-0.5554548,10.158598
0.89064306,-0.5398925,10.172963
0.973243,-0.5590461,10.196905
1.0067618,-0.5506664,10.143036
0.9672575,-0.5662287,10.180145
0.93732995,-0.545878,10.1861315
0.92655605,-0.5494693,10.093954
0.997185,-0.5434838,10.16578
1.0007763,-0.5518635,10.171766
0.90859956,-0.533907,10.14543
0.91099375,-0.5554548,10.169372
0.9696517,-0.5602432,10.171766
1.0031705,-0.5470751,10.13705
0.9816227,-0.5231331,10.123882
0.9576807,-0.5722142,10.152613
0.92535895,-0.5530606,10.181343
0.94810385,-0.5734113,10.135853
0.9648633,-0.5530606,10.156203
0.9864111,-0.5327099,10.166978
1.0151415,-0.56982,10.222044
1.0031705,-0.5494693,10.110714
0.9864111,-0.59136784,10.188525
0.9983821,-0.5674258,10.123882
0.9911995,-0.5470751,10.131064
0.94570965,-0.5231331,10.139444
0.9804256,-0.50637364,10.119094
1.0199299,-0.5650316,10.156203
1.0199299,-0.5674258,10.262746
0.9911995,-0.5374983,10.006566
1.0043676,-0.61291564,10.180145
1.0354922,-0.5781997,10.213664
0.9864111,-0.5315128,10.0269165
0.9756372,-0.5267244,10.149021
1.0390835,-0.5805939,10.19092
1.0055647,-0.581791,10.157401
1.0582372,-0.5398925,10.116699
0.9768343,-0.5626374,10.200497
1.0127473,-0.5590461,10.139444
1.0366893,-0.5554548,10.168175
1.0582372,-0.5470751,10.180145
1.0390835,-0.5554548,10.1861315
1.0187328,-0.59855044,10.128671
1.009156,-0.5446809,10.133459
0.9959879,-0.5626374,10.15381
1.0378864,-0.5542577,10.139444
1.0654198,-0.5590461,10.156203
1.0426749,-0.5805939,10.151415
1.0175357,-0.5674258,10.09156
1.0031705,-0.5351041,10.170568
0.9804256,-0.50757074,10.133459
1.0582372,-0.5494693,10.103531
1.0714053,-0.5734113,10.135853
1.0773908,-0.59017074,10.120291
1.0833763,-0.5686229,10.147824
1.0749966,-0.5614403,10.170568
1.0666169,-0.5626374,10.13705
1.0773908,-0.5530606,10.093954
1.0462662,-0.59017074,10.184934
1.0881647,-0.5793968,10.183737
1.1097125,-0.5662287,10.123882
1.0965444,-0.5805939,10.126276
1.1013328,-0.5722142,10.171766
1.0965444,-0.5710171,10.157401
1.0594343,-0.5554548,10.107122
1.0259154,-0.5614403,10.110714
1.1013328,-0.59495914,10.170568
1.13964,-0.5518635,10.149021
1.1121067,-0.545878,10.125079
1.0893618,-0.58657944,10.152613
1.0666169,-0.5686229,10.1861315
1.0773908,-0.5506664,10.109517
1.0546459,-0.533907,10.127473
1.0666169,-0.5530606,10.152613
1.067814,-0.5674258,10.104729
1.0259154,-0.5363012,10.156203
1.0570401,-0.5793968,10.140641
1.0714053,-0.60333884,10.18254
1.0570401,-0.5793968,10.111911
1.0714053,-0.5386954,10.184934
1.1013328,-0.5793968,10.131064
1.0199299,-0.545878,10.078392
0.9947908,-0.5530606,10.196905
0.9995792,-0.5650316,10.139444
0.997185,-0.5470751,10.09156
1.0259154,-0.5650316,10.141838
1.0618285,-0.5722142,10.170568
1.067814,-0.5566519,10.103531
1.0031705,-0.5363012,10.156203
0.94930094,-0.557849,10.19092
0.9744401,-0.5674258,10.126276
0.9876082,-0.5602432,10.089166
1.0307038,-0.557849,10.17416
1.0534488,-0.5662287,10.1382475
1.0163386,-0.5398925,10.119094
0.9708488,-0.5482722,10.156203
0.9648633,-0.5482722,10.176555
1.0163386,-0.5518635,10.151415
1.0079589,-0.5542577,10.135853
1.0139444,-0.5614403,10.089166
1.021127,-0.5770026,10.146626
0.9995792,-0.5470751,10.1226845
0.9624691,-0.5434838,10.113108
0.9744401,-0.5626374,10.1861315
1.033098,-0.58538234,10.129868
1.0115502,-0.5374983,10.103531
0.9708488,-0.5710171,10.111911
1.0534488,-0.5793968,10.207679
1.0642227,-0.5746084,10.14543
0.9911995,-0.5351041,10.09994
0.94211835,-0.5482722,10.157401
1.0067618,-0.5626374,10.201694
1.0342951,-0.5386954,10.08318
1.0103531,-0.5650316,10.13705
1.021127,-0.5722142,10.139444
1.0127473,-0.5602432,10.151415
0.9792285,-0.5434838,10.141838
0.997185,-0.58538234,10.183737
1.0031705,-0.5734113,10.115502
1.0510546,-0.5363012,10.132261
1.0354922,-0.5470751,10.163386
0.9911995,-0.5662287,10.149021
1.0055647,-0.5614403,10.117896
1.033098,-0.59376204,10.134656
1.0785879,-0.5686229,10.116699
1.021127,-0.5267244,10.113108
0.9768343,-0.5482722,10.163386
1.0007763,-0.5686229,10.151415
1.0498575,-0.5686229,10.103531
1.0857705,-0.5770026,10.143036
1.0833763,-0.59136784,10.1382475
1.0474633,-0.5470751,10.1621895
1.0079589,-0.5470751,10.132261
0.9744401,-0.581791,10.170568
0.9600749,-0.5590461,10.150218
1.0139444,-0.56982,10.120291
1.0319009,-0.5614403,10.1382475
1.0486604,-0.5722142,10.163386
1.009156,-0.545878,10.1226845
1.0223241,-0.5398925,10.156203
1.0175357,-0.5482722,10.144233
1.0187328,-0.5446809,10.111911
1.0390835,-0.5590461,10.180145
1.0259154,-0.5602432,10.123882
1.0618285,-0.5422867,10.146626
1.0630256,-0.51954174,10.1382475
1.0151415,-0.5566519,10.152613
0.9624691,-0.5482722,10.128671
1.0031705,-0.545878,10.1861315
0.9983821,-0.5243302,10.141838
1.0486604,-0.5734113,10.121488
1.0354922,-0.5638345,10.1861315
1.0199299,-0.5470751,10.146626
1.0414777,-0.58538234,10.152613
1.0307038,-0.5662287,10.172963
1.0582372,-0.5351041,10.149021
1.0474633,-0.5710171,10.156203
1.0474633,-0.5650316,10.169372
1.0247183,-0.5674258,10.107122
1.0570401,-0.5518635,10.152613
1.0546459,-0.5602432,10.170568
1.0378864,-0.5482722,10.129868
1.0414777,-0.5758055,10.1226845
1.0366893,-0.5410896,10.180145
1.0702082,-0.58418524,10.125079
1.0510546,-0.5662287,10.144233
1.0642227,-0.5494693,10.222044
1.079785,-0.5482722,10.107122
1.0498575,-0.5434838,10.086772
1.0809821,-0.58418524,10.20289
1.0642227,-0.5386954,10.149021
1.0319009,-0.5315128,10.123882
1.0307038,-0.5805939,10.198102
1.1252748,-0.5650316,10.097546
1.0390835,-0.5542577,10.171766
1.0235212,-0.51834464,10.0987425
1.0139444,-0.5650316,10.121488
1.0187328,-0.5710171,10.244789
0.9947908,-0.5374983,10.141838
1.0773908,-0.58777654,10.107122
1.1133038,-0.5793968,10.1143055
1.0857705,-0.5746084,10.103531
1.0414777,-0.5734113,10.15381
1.0953473,-0.5231331,10.204087
1.0546459,-0.51595044,10.095152
1.0390835,-0.5686229,10.149021
1.0570401,-0.5781997,10.237606
0.90859956,-0.39983168,10.089166
1.103727,-0.6584055,10.155006
1.2425907,-0.62488663,10.121488
1.1563994,-0.60333884,10.131064
0.9900024,-0.49799395,10.141838
0.8655039,-0.5255273,10.21127
0.82719666,-0.545878,10.199299
0.8463503,-0.5279215,10.166978
0.91937345,-0.5363012,10.230424
0.9672575,-0.545878,10.13705
0.92176765,-0.56982,10.158598
0.9588778,-0.5662287,10.135853
0.9588778,-0.533907,10.156203
0.93134445,-0.5231331,10.113108
0.94690675,-0.5482722,10.158598
0.85473,-0.5722142,10.220847
0.79607207,-0.5255273,10.102334
0.7529764,-0.5327099,10.13705
0.80684596,-0.5602432,10.147824
0.85473,-0.51714754,10.192117
0.79367787,-0.52073884,10.128671
0.724246,-0.545878,10.170568
0.5434838,-0.5674258,10.266336
0.61650693,-0.51595044,10.299856
0.6500258,-0.45968673,10.235212
0.79248077,-0.46088383,10.208876
0.94930094,-0.5506664,10.110714
0.9552865,-0.5470751,10.189722
0.9528923,-0.47405192,10.014946
0.9684546,-0.44771573,10.04607
1.0079589,-0.4321534,10.2495775
1.1611878,-0.50517654,10.207679
1.0809821,-0.48961425,10.259154
0.92775315,-0.4333505,10.126276
0.6967127,-0.35314476,10.128671
0.688333,-0.4405331,10.092757
0.78649527,-0.45130703,10.188525
1.043872,-0.52073884,10.19451
1.2557588,-0.5710171,10.1226845
1.1240777,-0.50517654,10.006566
0.82121116,-0.47405192,10.120291
0.5746084,-0.5662287,10.189722
0.5674258,-0.6428431,10.268731
0.6919243,-0.56982,10.180145
0.82121116,-0.4189853,10.040085
0.89064306,-0.37948096,10.067618
0.94570965,-0.49440265,10.213664
0.9672575,-0.5231331,10.170568
0.8762778,-0.48482585,10.08318
0.6344634,-0.44891283,10.199299
0.5793968,-0.46447513,10.286688
0.79846627,-0.46447513,10.1226845
0.866701,-0.36870706,10.072407
0.7781156,-0.46447513,10.3214035
0.6835446,-0.39264908,10.335769
0.6476316,-0.28491,10.333375
0.320823,-0.2837129,10.529699
0.12689269,-0.29807812,10.691308
0.50517654,-0.37708676,10.699687
0.5758055,-0.5781997,11.216835
0.6799533,-0.8631097,11.877635
0.9983821,-1.0115502,12.120646
0.60932434,-1.1336545,11.134235
-1.1408371,-0.9888053,12.427104
-1.8004397,-0.59855044,12.163742
-0.142455,-0.8379706,11.101913
1.2114661,-1.435324,10.824186
0.7769185,-1.2593501,11.297041
-0.15562311,-1.0079589,11.834539
-0.32202014,-1.1935096,12.406754
-0.961272,-0.9959879,13.735536
-0.6751649,-1.1073183,13.354857
1.0307038,-1.2162545,11.833342
2.5510218,-0.9684546,10.662578
3.2573113,-0.5506664,9.995792
3.5422213,-0.32680854,9.012972
3.168726,-0.32680854,9.074024
1.9776106,-0.35314476,9.738416
0.760159,-0.24899697,10.134656
-0.050278235,-0.09696517,10.551247
-0.21667525,-0.027533319,9.987412
0.38307226,-0.061052144,9.26556
0.7733272,-0.095768064,9.051279
1.0749966,0.05865794,8.992621
1.0821792,0.25378537,8.943541
1.3383588,0.40701428,8.65025
1.4089876,0.5255273,8.517372
1.8926164,0.7278373,8.294712
2.2852654,0.89662856,8.1343
2.0733786,0.8595184,8.567651
1.5107412,0.79726917,8.590396
1.5143325,0.61291564,8.463503
1.6041151,0.581791,8.240842
1.5945383,0.60573304,8.4587145
1.7489643,0.5554548,8.626308
1.9416976,0.5327099,8.92319
1.8614918,0.5710171,9.147048
2.1619642,0.6512229,9.19972
2.3630772,0.82240826,9.247604
2.1631613,0.9636662,9.921572
1.5275006,1.0881647,10.189722
2.1033063,1.1827357,10.184934
2.8933928,1.270124,9.716867
3.5194764,1.3575124,9.337387
3.7181952,1.4413095,9.209297
3.454833,1.4329298,9.416395
3.228581,1.4053963,9.56723
3.1160536,1.3611037,9.712079
3.0585926,1.5095441,9.640253
3.110068,1.7597382,9.296685
3.2752678,1.8854338,9.36492
3.3722332,1.9189527,9.385271
3.3159695,1.9859903,9.473856
2.8802247,2.0207062,9.51336
2.8778305,1.8722657,9.536105
2.9724014,1.7776948,9.315839
3.1292217,1.9141643,9.184157
3.2453403,2.147599,9.082404
3.0550013,2.255338,9.131485
2.5689783,2.1691468,9.275137
2.3953989,2.0242975,9.161413
2.7832594,2.136825,9.102755
3.2010477,2.2301989,8.773552
3.6332011,2.1703439,8.690952
3.7014358,2.1871033,8.546103
3.942053,2.1643584,8.517372
4.033033,2.136825,8.582016
3.8618474,2.0398598,8.60117
3.6212301,1.8662802,9.150639
2.9843724,1.8531121,9.178172
3.3614593,1.8219875,9.045294
3.855862,1.7932571,8.845378
4.0438066,1.8339585,8.689755
3.930082,1.7872716,8.6299
3.4871547,1.8124107,9.149442
3.0334535,1.8363527,9.4535055
3.0370448,1.661576,9.552865
3.095703,1.448492,9.339781
3.1304188,1.5466543,9.045294
3.1268275,1.5107412,9.131485
2.9771898,1.459266,9.099164
2.9412768,1.4736311,8.939949
2.966416,1.3455414,8.687361
3.0059202,1.2940661,8.603564
3.264494,1.3515269,8.524555
3.4404678,1.411382,8.295909
3.2142158,1.3503298,8.7053175
3.120842,1.1875241,8.731653
3.371036,0.9864111,8.261193
3.6248214,1.0989386,7.8709383
4.0653543,1.2126632,7.4495587
4.722563,1.0498575,7.797915
4.8518496,0.8439561,8.24204
4.727351,0.89543146,9.015367
4.80636,0.9995792,9.52174
5.127183,1.1085154,9.667787
5.3606176,1.1252748,8.86932
5.519832,1.2246342,9.009381
5.3761797,1.2401965,8.839393
5.746084,0.7577648,8.639477
5.9172697,0.6332663,8.542512
5.7281275,0.6715736,8.488642
5.2061915,0.49200845,8.656237
4.8398786,0.25857377,9.291897
4.3394904,-0.0035913025,9.727641
4.010288,-0.061052144,9.368511
4.10845,0.1412579,8.9602995
3.989937,0.04309563,9.425972
3.13401,-0.46447513,10.058042
2.1320367,-0.7673417,10.329783
1.2186487,-0.5746084,9.946711
1.0522517,-0.39025488,9.518148
1.0259154,-0.62847793,9.326612
1.1324574,-0.7134721,9.758766
0.93254155,-0.7326257,10.001778
0.45250413,-0.8391677,10.514136
-0.19153613,-0.8834604,11.405977
-0.30047232,-0.91697925,11.465832
0.18195933,-0.7062895,11.275493
0.10414778,-0.56982,11.286267
0.15322891,-0.79128367,11.3138
0.61411273,-0.9576807,11.088745
0.44891283,-0.80205756,11.010934
0.16519992,-0.8523358,10.952275
-0.01316811,-0.973243,11.307815
0.053869538,-1.067814,11.0695915
0.3878607,-1.0247183,10.461464
0.81881696,-0.9983821,10.376471
1.6472107,-0.8583213,10.486604
1.4401124,-0.45370123,10.425551
0.93254155,-0.5662287,10.675745
0.6440403,-0.62967503,10.827777
0.47405192,-0.37588966,10.878056
0.50397944,-0.29209262,11.389217
0.40701428,-0.6787562,12.084733
0.39983168,-0.6919243,12.059594
0.641646,-0.5602432,11.139024
0.5734113,-0.5722142,10.132261
0.32202014,-0.4369418,9.251195
0.45609543,-0.21667525,9.212888
-0.39863458,-0.4237737,9.408015
-0.46567222,-0.24181437,9.9790325
-0.092176765,-0.34237084,10.1382475
0.52073884,-0.38067806,10.092757
1.0378864,-0.260968,10.086772
1.3180081,-0.17477672,10.024523
1.389834,-0.12808979,10.178948
1.6244658,-0.108936176,10.056845
1.9369092,-0.14604631,10.123882
1.863886,-0.03232172,10.193314
1.8411411,-0.24181437,10.424355
1.5753847,-0.272939,10.5440645
1.2569559,-0.36152446,10.016143
0.9804256,-0.48003745,9.636662
0.7374141,-0.047884032,9.941922
0.93613285,0.24181437,10.257957
1.5047557,0.16160862,10.360908
1.8148049,-0.10295067,9.874885
1.7417817,-0.38187516,9.800665
1.3706805,-0.46088383,10.150218
1.5622166,-0.61890113,10.267534
1.946486,-0.93732995,10.338163
1.8243817,-1.1061212,10.131064
1.6711528,-0.91099375,9.607931
1.7776948,-0.6751649,10.235212
1.6352397,-0.20709845,10.441113
1.3012487,0.021547815,10.235212
1.2665327,-0.17357962,10.042479
1.2401965,-0.20709845,9.805453
1.3144168,-0.4405331,9.91798
1.5837644,-0.5530606,10.07121
1.7369933,-0.5470751,10.196905
1.7262194,-0.6703765,10.169372
1.6041151,-0.6799533,10.040085
1.5286977,-0.62368953,10.020931
1.5131354,-0.6823475,10.085575
1.567005,-0.724246,10.107122
1.7274165,-0.62847793,10.105926
1.7968484,-0.48482585,10.047267
1.8447324,-0.4237737,9.941922
1.9440918,-0.47285482,9.874885
1.899799,-0.49679685,10.111911
1.6747441,-0.5542577,10.152613
1.4879963,-0.5422867,10.03769
1.5071499,-0.6332663,9.940725
1.6208745,-0.700304,10.09994
1.5346833,-0.59615624,10.217256
1.4975731,-0.51475334,10.073604
1.5095441,-0.44891283,9.957485
1.5143325,-0.47285482,10.1226845
1.5227122,-0.50876784,10.207679
1.5310919,-0.48482585,10.101137
1.5897499,-0.5267244,10.011354
1.6376339,-0.5255273,9.993398
1.6867151,-0.5530606,10.087969
1.769315,-0.59136784,10.004171
1.7262194,-0.51595044,10.010158
1.7046716,-0.47165772,10.043676
1.7034745,-0.49919105,10.056845
1.7729063,-0.5446809,10.010158
1.7549498,-0.50876784,10.03769
1.6280571,-0.46208093,10.101137
1.5406688,-0.48123455,10.032902
1.5682021,-0.5674258,9.996989
1.5993267,-0.60214174,10.070012
1.5227122,-0.5686229,10.150218
1.3790601,-0.51355624,10.127473
1.389834,-0.48722005,10.127473
1.3850456,-0.47644615,10.180145
1.3239936,-0.50158525,10.16578
1.3024458,-0.48961425,10.152613
1.4041992,-0.51834464,10.05445
1.5059528,-0.58538234,10.081984
1.6328455,-0.59017074,10.116699
1.7178397,-0.62009823,10.047267
1.7345991,-0.59495914,9.998186
1.6555905,-0.5805939,9.998186
1.5658079,-0.49799395,10.096349
1.5634137,-0.47884035,10.117896
1.5825673,-0.48961425,10.0508585
1.5442601,-0.49320555,10.028113
1.70946,-0.59376204,10.006566
1.8303672,-0.5781997,10.087969
1.8626889,-0.61530983,10.07121
1.863886,-0.557849,9.941922
1.887828,-0.5279215,9.964667
1.8267759,-0.46208093,10.05445
1.8483237,-0.49200845,9.986216
1.863886,-0.545878,9.989806
1.9141643,-0.581791,9.987412
1.8626889,-0.50996494,10.048465
1.8770541,-0.50397944,9.97185
1.8662802,-0.46806642,10.024523
1.7669208,-0.46806642,10.096349
1.7441759,-0.46088383,10.05445
1.7621324,-0.46447513,10.011354
1.887828,-0.5327099,10.043676
2.0219033,-0.58418524,10.010158
2.0901382,-0.6536171,9.824607
1.9656396,-0.6691794,9.895236
1.8854338,-0.6787562,10.01734
1.8842367,-0.6476316,10.095152
1.9285295,-0.5626374,9.987412
1.8710686,-0.50637364,9.974244
1.8650831,-0.49559975,10.031705
1.8734628,-0.51834464,10.000581
1.8363527,-0.5374983,10.016143
1.804031,-0.5327099,10.031705
1.863886,-0.5422867,10.014946
1.922544,-0.5291186,10.016143
1.9668367,-0.50158525,10.010158
1.9512744,-0.5303157,9.946711
1.9548657,-0.5303157,9.970653
1.9776106,-0.58418524,9.961076
1.9381063,-0.59735334,9.981427
1.8962077,-0.58777654,10.032902
1.839944,-0.59974754,10.075998
1.8555063,-0.5674258,10.016143
1.8914193,-0.5351041,10.013748
1.8291701,-0.50158525,10.011354
1.7513585,-0.47764325,10.05445
1.8375498,-0.49440265,10.048465
1.9979613,-0.5279215,9.952697
2.0506337,-0.5650316,9.91798
2.1152773,-0.5758055,9.920375
1.9632454,-0.5351041,10.0664215
1.8531121,-0.5805939,10.005369
1.7633295,-0.545878,9.945514
1.7381904,-0.5243302,10.168175
1.8614918,-0.4417302,10.157401
1.4173675,-0.4225766,10.311827
1.091756,-0.35673606,10.338163
1.1049241,-0.29328972,9.982624
1.364695,-0.2896984,10.019734
1.3587095,-0.4441244,10.394426
1.9117701,-0.6943185,10.199299
2.0147207,-0.45609543,10.189722
2.171541,-0.52073884,9.53012
2.9592333,-0.8379706,8.865729
3.8067808,-1.1420342,9.425972
3.1830912,-0.6919243,9.801862
2.1571758,-0.58897364,10.020931
2.1535845,-0.50637364,9.800665
2.3008277,-0.36391866,10.259154
2.9496565,-0.5231331,10.139444
2.8874073,-0.2753332,9.458294
2.730587,-0.22266077,9.308656
2.6264393,-0.5662287,10.518925
2.4660277,-0.78529817,10.447099
2.3882163,-0.7086837,9.856929
2.2816741,-0.6452374,9.8198185
2.3523033,-0.7422025,9.950302
2.6084828,-0.60573304,9.82341
2.3906105,-0.60333884,10.0987425
2.0135236,-0.36152446,10.007763
2.2816741,-0.40342298,9.67018
2.3810337,-0.49320555,9.860519
2.087744,-0.5434838,9.8437605
1.4149733,-0.37948096,9.866506
2.0039468,-0.40821138,10.024523
2.2218192,-0.44651863,9.993398
2.2972364,-0.47884035,9.919178
2.4432828,-0.45370123,9.78989
2.4013844,-0.44651863,9.844957
2.3475149,-0.4417302,10.131064
2.0614076,-0.39863458,9.807847
2.0278888,-0.40940848,9.922769
1.9907787,-0.46567222,9.945514
1.9560628,-0.46686932,10.01734
2.0350714,-0.47405192,9.921572
2.0111294,-0.47884035,9.958682
1.8411411,-0.4237737,10.068815
1.6364368,-0.41180268,10.023325
1.4089876,-0.39743748,10.254366
1.6065093,-0.47524905,10.166978
1.8710686,-0.50517654,10.010158
2.1260512,-0.46926352,10.156203
1.6005238,-0.35434186,10.013748
1.6017209,-0.47524905,10.07121
1.5837644,-0.37349546,10.169372
1.9548657,-0.49440265,9.969456
1.7908629,-0.36631286,9.985018
1.7729063,-0.4333505,10.116699
1.5466543,-0.51355624,10.1226845
1.4616601,-0.48722005,10.012551
1.353921,-0.47165772,10.149021
1.3275849,-0.4189853,10.193314
1.4149733,-0.40581718,10.014946
1.5358804,-0.60453594,10.047267
1.6400281,-0.5374983,9.975441
1.5622166,-0.5590461,9.947908
1.5107412,-0.5686229,9.88925
1.5454572,-0.58657944,10.08318
1.4879963,-0.62608373,10.00896
1.2018893,-0.51475334,10.210073
1.4053963,-0.5530606,10.195708
1.4496891,-0.5542577,10.254366
1.5035586,-0.48961425,10.030508
1.5095441,-0.48362875,9.989806
1.6938977,-0.51355624,9.961076
1.7142484,-0.49320555,10.178948
1.5574282,-0.427365,10.0508585
1.520318,-0.45968673,10.028113
1.5179238,-0.50637364,10.104729
1.6124948,-0.47644615,10.139444
1.6759412,-0.5315128,10.17416
1.661576,-0.45489833,10.011354
1.697489,-0.46088383,9.989806
1.7956513,-0.49799395,10.0664215
1.7681179,-0.50278234,10.064027
1.7381904,-0.44651863,9.985018
1.7106571,-0.4405331,10.018537
1.7980455,-0.4381389,10.040085
1.9057846,-0.45010993,9.992201
1.8555063,-0.4165911,10.010158
1.8148049,-0.40222588,10.053253
1.827973,-0.4225766,9.983821
1.8531121,-0.47524905,9.939528
1.8938135,-0.47285482,10.077195
1.8447324,-0.4201824,10.016143
1.7992426,-0.47046062,9.993398
1.8626889,-0.48003745,10.020931
1.7776948,-0.4165911,10.038888
1.7058687,-0.427365,10.044873
1.7429788,-0.4417302,10.032902
1.7477672,-0.45848963,10.019734
1.8291701,-0.4381389,10.019734
1.827973,-0.4297592,10.038888
1.8148049,-0.45250413,10.032902
1.804031,-0.4177882,9.981427
1.7274165,-0.44771573,10.05445
1.7345991,-0.45130703,10.058042
1.7274165,-0.4249708,10.043676
1.7729063,-0.41299978,10.052056
1.8183962,-0.4429273,9.989806
1.7788919,-0.45968673,9.994595
1.6962919,-0.4441244,10.02572
1.6867151,-0.46567222,10.111911
1.7381904,-0.45968673,10.047267
1.8124107,-0.4225766,9.988609
1.8459295,-0.4345476,10.007763
1.7764976,-0.41299978,10.032902
1.7202339,-0.37469256,10.000581
1.8148049,-0.45968673,9.985018
1.7836803,-0.415394,10.040085
1.7621324,-0.46327803,10.05445
1.6819267,-0.46806642,10.08318
1.6998832,-0.45968673,10.08318
1.7705121,-0.40581718,10.073604
1.7908629,-0.37229836,9.993398
1.7992426,-0.39025488,10.012551
1.8375498,-0.41180268,9.935937
1.8579005,-0.46926352,9.995792
1.7238252,-0.44532153,10.04607
1.6412252,-0.4441244,10.086772
1.6101006,-0.40342298,10.103531
1.7238252,-0.415394,10.115502
1.7465701,-0.40462008,10.004171
1.8327614,-0.44651863,10.016143
1.7944542,-0.44771573,10.032902
1.7908629,-0.4345476,10.0341
1.7597382,-0.45250413,10.032902
1.7262194,-0.51475334,10.012551
1.6603789,-0.47884035,10.109517
1.5993267,-0.39863458,10.0748005
1.7082629,-0.4285621,10.04607
1.863886,-0.40342298,10.020931
1.8495208,-0.36870706,9.962274
1.8219875,-0.4321534,9.986216
1.8483237,-0.48961425,9.981427
1.7896658,-0.47524905,10.101137
1.7381904,-0.45130703,10.08318
1.7250223,-0.48003745,10.03769
1.7633295,-0.5243302,10.032902
1.6915035,-0.45848963,10.065224
1.6256629,-0.4369418,10.031705
1.7046716,-0.40342298,10.087969
1.7142484,-0.34596214,10.102334
1.769315,-0.30765492,9.937134
1.7609353,-0.37708676,10.055647
1.8543092,-0.46327803,10.02572
1.9201498,-0.45130703,10.029311
1.9428947,-0.47046062,10.030508
1.9081788,-0.46088383,9.97185
1.9524715,-0.47285482,9.983821
1.9764135,-0.4405331,10.010158
1.9357121,-0.4165911,9.993398
1.9309237,-0.46208093,9.965864
1.9692309,-0.44532153,10.030508
1.9596541,-0.4225766,9.977836
1.9033904,-0.4249708,10.06283
1.8926164,-0.40701428,9.962274
1.9835961,-0.39145198,9.994595
1.9931729,-0.37948096,10.01734
1.9416976,-0.39743748,9.949105
1.9141643,-0.4249708,10.004171
1.9369092,-0.4297592,10.01734
1.9620483,-0.4213795,9.989806
1.9285295,-0.44532153,10.038888
1.887828,-0.4345476,10.01734
1.851915,-0.45130703,10.048465
1.9321208,-0.4405331,10.044873
1.9919758,-0.45370123,10.001778
1.9895816,-0.4225766,9.956287
2.0398598,-0.4177882,9.980229
2.0099323,-0.41299978,9.995792
2.0446482,-0.44771573,9.981427
2.0470424,-0.4285621,9.962274
2.0231004,-0.40581718,10.006566
1.9991584,-0.39863458,10.013748
2.0614076,-0.41060558,9.961076
2.1176715,-0.38187516,9.945514
2.1380222,-0.37110126,9.969456
2.0949266,-0.36391866,9.952697
2.0590134,-0.3854665,9.961076
2.054225,-0.3878607,9.94312
2.1691468,-0.4225766,9.962274
2.1883004,-0.4165911,9.951499
2.1751323,-0.4141969,9.957485
2.100912,-0.4237737,9.923966
2.0649989,-0.4189853,9.976639
2.0841527,-0.39384618,9.985018
2.112883,-0.4165911,9.937134
2.1045034,-0.40940848,9.946711
2.0949266,-0.4333505,9.998186
2.0973208,-0.4321534,10.01734
2.1200657,-0.4141969,9.938332
2.0709844,-0.39145198,9.989806
2.0949266,-0.4261679,10.01734
2.0949266,-0.39145198,9.975441
2.0685902,-0.39983168,9.938332
2.0901382,-0.40581718,9.986216
2.0901382,-0.39504328,9.974244
2.1033063,-0.4297592,9.965864
2.123657,-0.4201824,9.962274
2.1428106,-0.4309563,9.964667
2.1871033,-0.41060558,9.921572
2.172738,-0.4237737,9.928755
2.1535845,-0.415394,9.945514
2.2242134,-0.39983168,9.907207
2.2146366,-0.40701428,9.909601
2.2732944,-0.41299978,9.956287
2.2984335,-0.37708676,9.970653
2.2625206,-0.40701428,9.872491
2.135628,-0.40102878,9.957485
2.1763294,-0.4249708,9.996989
2.1499932,-0.37948096,9.947908
2.2254105,-0.4201824,9.932345
2.2469583,-0.4165911,9.983821
2.2146366,-0.41060558,9.898827
2.2589293,-0.4237737,9.952697
2.2780828,-0.39863458,9.908403
2.148796,-0.4165911,9.935937
2.135628,-0.36272156,10.014946
2.1631613,-0.34715924,9.967062
2.232593,-0.4249708,9.925163
2.256535,-0.4357447,9.937134
2.1751323,-0.44651863,9.96347
2.1212628,-0.44651863,9.969456
2.1404164,-0.44532153,9.968259
2.1918917,-0.37948096,9.911995
2.244564,-0.3842694,9.91439
2.2768857,-0.35913026,9.908403
2.1930888,-0.37708676,9.903615
2.1978772,-0.40701428,9.933543
2.2098482,-0.3890578,9.946711
2.2182279,-0.39863458,9.959879
2.2301989,-0.39743748,9.920375
2.2050598,-0.38187516,9.946711
2.2002714,-0.3878607,9.992201
2.231396,-0.40821138,9.919178
2.232593,-0.3890578,9.925163
2.2349873,-0.40102878,9.941922
2.2936451,-0.40342298,9.88925
2.2625206,-0.37708676,9.946711
2.2182279,-0.37110126,9.962274
2.231396,-0.39504328,9.9790325
2.2864625,-0.415394,9.94312
2.2876596,-0.38307226,9.93474
2.1811178,-0.39983168,9.929952
2.19668,-0.4189853,9.928755
2.232593,-0.4405331,9.985018
2.2349873,-0.36990416,9.915586
2.2469583,-0.40342298,9.940725
2.2278047,-0.41299978,9.937134
2.2158337,-0.39743748,9.965864
2.2062569,-0.37948096,9.922769
2.1883004,-0.39863458,9.976639
2.2110453,-0.37828386,9.876082
2.1775265,-0.37948096,9.949105
2.1787236,-0.41180268,9.998186
2.1523874,-0.40342298,9.970653
2.1272483,-0.4249708,9.977836
2.1164744,-0.39264908,9.988609
2.1739352,-0.39863458,9.946711
2.1918917,-0.39384618,9.880871
2.208651,-0.40342298,9.900024
2.2062569,-0.39863458,9.933543
2.1978772,-0.40102878,9.900024
2.1655555,-0.37588966,9.94312
2.1787236,-0.40701428,9.9790325
2.1655555,-0.40581718,9.927557
2.1320367,-0.41060558,9.977836
2.1188686,-0.40821138,9.94312
2.1859062,-0.4345476,9.961076
2.1775265,-0.40462008,9.965864
2.160767,-0.39264908,9.950302
2.1392193,-0.39743748,9.922769
2.1787236,-0.3842694,9.940725
2.1883004,-0.40940848,9.988609
2.1511903,-0.39384618,9.949105
2.1033063,-0.39863458,9.939528
2.1392193,-0.4225766,9.981427
2.1763294,-0.39624038,9.939528
2.1787236,-0.40102878,9.957485
2.1140802,-0.40222588,9.983821
2.1499932,-0.4201824,9.969456
2.1859062,-0.40701428,9.911995
2.1679497,-0.3878607,9.91798
2.1679497,-0.38307226,9.977836
2.2134395,-0.3842694,9.91798
2.207454,-0.36990416,9.908403
2.160767,-0.36511576,9.953894
2.110489,-0.39264908,9.977836
2.1033063,-0.4297592,9.985018
2.1021092,-0.4381389,9.96347
2.1140802,-0.41299978,9.962274
2.1068976,-0.4201824,9.9790325
2.1631613,-0.41060558,9.96347
2.2062569,-0.36990416,9.920375
2.1906946,-0.36152446,9.922769
2.171541,-0.3854665,9.951499
2.1260512,-0.37588966,9.940725
2.1033063,-0.40102878,9.952697
2.0841527,-0.40222588,9.982624
2.0745757,-0.40102878,9.953894
2.111686,-0.4177882,9.940725
2.1296425,-0.439336,9.989806
2.0937295,-0.39863458,9.964667
2.1188686,-0.39863458,9.949105
2.160767,-0.37588966,9.927557
2.2373815,-0.37828386,9.935937
2.244564,-0.36870706,9.88925
2.1045034,-0.36391866,9.981427
2.0470424,-0.4189853,10.012551
2.100912,-0.4369418,9.999383
2.099715,-0.39863458,9.977836
2.0709844,-0.4249708,9.982624
2.124854,-0.4345476,10.061633
2.160767,-0.40821138,9.944317
2.1272483,-0.41060558,9.920375
2.1763294,-0.39504328,9.935937
2.15957,-0.35913026,9.985018
2.1559787,-0.37588966,9.920375
2.15957,-0.39145198,9.927557
2.123657,-0.3890578,9.970653
2.0638018,-0.39384618,9.9550905
2.0769699,-0.4189853,9.995792
2.0805612,-0.4285621,9.976639
2.1152773,-0.4141969,9.961076
2.1703439,-0.3842694,9.969456
2.148796,-0.41060558,9.92636
2.110489,-0.38307226,9.988609
2.12246,-0.39863458,9.956287
2.1679497,-0.37229836,9.9790325
2.1440077,-0.3854665,9.944317
2.135628,-0.37110126,9.991004
2.0578163,-0.3878607,10.040085
2.087744,-0.4249708,9.94312
2.0817583,-0.41180268,9.94312
2.088941,-0.39384618,9.999383
2.1320367,-0.3878607,9.950302
2.148796,-0.38187516,9.919178
2.1655555,-0.39863458,9.925163
2.1320367,-0.3878607,9.964667
2.112883,-0.3866636,9.987412
2.0578163,-0.38307226,9.969456
2.1033063,-0.39983168,9.980229
2.1332338,-0.3842694,9.958682
2.124854,-0.4345476,9.996989
2.0530279,-0.4177882,9.962274
1.99437,-0.41060558,10.0029745
2.066196,-0.40701428,9.986216
2.1559787,-0.38187516,9.91798
2.1859062,-0.39743748,9.947908
2.1679497,-0.39145198,9.951499
2.1811178,-0.41299978,9.956287
2.0961237,-0.39145198,9.957485
2.1906946,-0.40940848,9.9550905
2.2457612,-0.36870706,9.939528
2.2337902,-0.35075054,9.929952
2.171541,-0.36391866,9.935937
2.1404164,-0.4201824,9.950302
2.1152773,-0.427365,10.006566
2.1212628,-0.38067806,9.976639
2.1775265,-0.37349546,9.939528
2.2613235,-0.3890578,9.895236
2.2828712,-0.36631286,9.944317
2.219425,-0.34237084,9.921572
2.1511903,-0.41180268,9.949105
2.1296425,-0.39264908,9.985018
2.15957,-0.36511576,9.96347
2.1930888,-0.36990416,9.907207
2.1871033,-0.40701428,9.964667
2.1643584,-0.37828386,9.953894
2.123657,-0.40581718,9.965864
2.136825,-0.40940848,9.975441
2.1164744,-0.40940848,9.959879
2.086547,-0.40222588,9.968259
2.148796,-0.41060558,9.962274
2.184709,-0.37469256,9.92636
2.2098482,-0.3878607,9.910798
2.1440077,-0.40940848,9.938332
2.1033063,-0.45729253,10.03769
2.1811178,-0.39624038,9.998186
2.2720973,-0.38187516,9.8916445
2.2301989,-0.36152446,9.9550905
2.1655555,-0.37828386,9.986216
2.124854,-0.3854665,9.947908
2.1535845,-0.3866636,9.953894
2.2373815,-0.3890578,9.937134
2.2170308,-0.35673606,9.904813
2.2349873,-0.40701428,9.939528
2.1930888,-0.40102878,9.949105
2.1428106,-0.39145198,9.947908
2.183512,-0.39264908,9.967062
2.1523874,-0.39025488,9.911995
2.1440077,-0.37708676,9.991004
2.1452048,-0.40701428,9.986216
2.195483,-0.4201824,9.933543
2.1894975,-0.38307226,9.92636
2.184709,-0.37469256,9.962274
2.195483,-0.39743748,9.945514
2.1571758,-0.40342298,9.892841
2.1296425,-0.39264908,9.983821
2.171541,-0.38307226,9.962274
2.2218192,-0.37828386,9.904813
2.2266076,-0.35913026,9.901221
2.256535,-0.39624038,9.94312
2.183512,-0.39025488,9.974244
2.1212628,-0.40222588,9.988609
2.134431,-0.427365,9.939528
2.1511903,-0.38067806,9.947908
2.1691468,-0.40342298,10.001778
2.171541,-0.39384618,9.922769
2.2062569,-0.3854665,9.911995
2.1619642,-0.39025488,9.929952
2.172738,-0.4225766,9.96347
2.1906946,-0.39983168,9.977836
2.2278047,-0.40342298,9.94312
2.2014685,-0.36631286,9.922769
2.2170308,-0.38067806,9.985018
2.2134395,-0.36391866,9.938332
2.2373815,-0.37349546,9.939528
2.1883004,-0.39863458,9.952697
2.136825,-0.415394,9.958682
2.1140802,-0.36870706,9.980229
2.1751323,-0.37229836,9.957485
2.2529438,-0.36272156,9.927557
2.1811178,-0.34715924,9.91439
2.183512,-0.39983168,9.949105
2.1332338,-0.4177882,9.951499
2.1068976,-0.40821138,9.975441
2.0721815,-0.4249708,10.011354
2.1296425,-0.45010993,10.0029745
2.0829554,-0.4141969,10.0029745
2.0374656,-0.40462008,9.9790325
2.0925324,-0.4189853,9.998186
2.1164744,-0.40342298,9.97185
2.1763294,-0.36631286,9.91439
2.1894975,-0.37229836,9.94312
2.1643584,-0.3842694,9.927557
2.1871033,-0.40581718,9.97185
2.1775265,-0.37948096,9.96347
2.1511903,-0.39145198,10.004171
2.1751323,-0.4189853,9.992201
2.1667526,-0.38187516,9.964667
2.2002714,-0.4237737,9.951499
2.2337902,-0.3890578,9.956287
2.3116016,-0.3842694,9.952697
2.336741,-0.39384618,9.850943
2.3068132,-0.36152446,9.962274
2.3092074,-0.36032736,9.90601
2.2888567,-0.37828386,9.883265
2.3008277,-0.39504328,9.937134
2.315193,-0.3854665,9.885659
2.2529438,-0.37349546,9.903615
2.2601264,-0.38067806,9.947908
2.2936451,-0.36990416,9.941922
2.3104045,-0.34237084,9.894038
2.3092074,-0.35913026,9.882068
2.2984335,-0.37229836,9.922769
2.2960393,-0.36152446,9.932345
2.2242134,-0.36152446,9.892841
2.231396,-0.3866636,9.947908
2.244564,-0.39025488,9.91798
2.2948422,-0.3866636,9.877279
2.2876596,-0.40701428,9.916783
2.2529438,-0.37349546,9.939528
2.2230163,-0.41180268,9.961076
2.2002714,-0.40222588,10.018537
2.2421699,-0.39504328,9.931149
2.2840683,-0.37828386,9.909601
2.2541409,-0.38307226,9.940725
2.2337902,-0.3866636,9.964667
2.1763294,-0.3878607,9.921572
2.1523874,-0.39743748,9.970653
2.1918917,-0.40462008,9.97185
2.2290018,-0.39983168,9.957485
2.1751323,-0.3878607,9.927557
2.1188686,-0.41180268,9.994595
2.0829554,-0.4369418,10.030508
2.1452048,-0.4237737,9.959879
2.1859062,-0.39504328,9.935937
2.1871033,-0.39743748,9.964667
2.1906946,-0.3866636,9.983821
2.2637177,-0.36990416,9.864111
2.268506,-0.36391866,9.856929
2.2661119,-0.3890578,9.93474
2.2026656,-0.37588966,9.916783
2.1404164,-0.3866636,9.965864
2.1775265,-0.39983168,9.961076
2.160767,-0.39743748,9.946711
2.146402,-0.4165911,9.986216
2.1787236,-0.4369418,9.939528
2.2409728,-0.40462008,9.951499
2.2876596,-0.37828386,9.909601
2.3080103,-0.36032736,9.886856
2.315193,-0.35553896,9.888053
2.2876596,-0.36990416,9.894038
2.2637177,-0.37588966,9.907207
2.2134395,-0.38187516,9.951499
2.1739352,-0.40342298,9.968259
2.1763294,-0.40222588,9.957485
2.1691468,-0.4177882,9.9550905
2.1906946,-0.40462008,9.975441
2.2038627,-0.40821138,9.896433
2.2397757,-0.38067806,9.913192
2.2098482,-0.35793316,9.921572
2.2397757,-0.35673606,9.951499
2.2517467,-0.34835634,9.928755
2.1631613,-0.35793316,9.935937
2.1535845,-0.41180268,9.987412
2.2182279,-0.40222588,9.939528
2.1811178,-0.4237737,9.925163
2.088941,-0.41299978,10.004171
2.0530279,-0.4189853,9.994595
2.0626047,-0.39743748,10.004171
2.1739352,-0.40581718,9.923966
2.2505496,-0.39983168,9.907207
2.2541409,-0.39025488,9.919178
2.1284454,-0.32680854,9.947908
2.1523874,-0.36870706,9.977836
2.134431,-0.37349546,9.958682
2.0925324,-0.3866636,9.933543
2.110489,-0.4177882,9.992201
2.1045034,-0.4405331,10.001778
2.087744,-0.4201824,9.986216
2.0817583,-0.3878607,9.994595
2.1906946,-0.4141969,9.941922
2.2158337,-0.40940848,9.904813
2.2457612,-0.36391866,9.90601
2.220622,-0.34955344,9.91439
2.2182279,-0.3854665,9.96347
2.195483,-0.3878607,9.953894
2.1452048,-0.3842694,9.950302
2.123657,-0.41299978,9.982624
2.12246,-0.4201824,9.994595
2.1057005,-0.39264908,9.957485
2.1583729,-0.3866636,9.947908
2.2110453,-0.37110126,9.976639
2.2756886,-0.39145198,9.913192
2.2756886,-0.37469256,9.892841
2.2505496,-0.36990416,9.915586
2.2301989,-0.35913026,9.928755
2.1763294,-0.39145198,9.970653
2.2050598,-0.415394,9.927557
2.1631613,-0.39863458,9.982624
2.1679497,-0.37110126,9.94312
2.1535845,-0.415394,9.952697
2.1523874,-0.40821138,9.962274
2.1775265,-0.39504328,9.946711
2.2625206,-0.38187516,9.910798
2.2744915,-0.33758244,9.885659
2.27928,-0.36750996,9.945514
2.2888567,-0.37110126,9.909601
2.1883004,-0.37110126,9.928755
2.1571758,-0.4309563,9.982624
2.1523874,-0.4321534,10.016143
2.1511903,-0.40701428,9.952697
2.148796,-0.4357447,9.967062
2.208651,-0.40102878,9.996989
2.256535,-0.39863458,9.976639
2.2888567,-0.36990416,9.902418
2.2972364,-0.39264908,9.946711
2.2948422,-0.35194764,9.915586
2.3523033,-0.36152446,9.91798
2.4073699,-0.35673606,9.922769
2.3798366,-0.36391866,9.896433
2.349909,-0.35913026,9.888053
2.3223755,-0.39624038,9.949105
2.3451207,-0.36990416,9.92636
2.3678656,-0.3866636,9.878476
2.292448,-0.39983168,9.944317
2.291251,-0.39983168,9.993398
2.3415294,-0.37708676,9.927557
2.4169466,-0.37349546,9.8437605
2.420538,-0.35913026,9.864111
2.456451,-0.34596214,9.920375
2.445677,-0.30885202,9.841366
2.420538,-0.3878607,9.873688
2.3666685,-0.40342298,9.916783
2.304419,-0.40342298,9.921572
2.36188,-0.38187516,9.913192
2.36188,-0.36750996,9.957485
2.3654714,-0.39025488,9.91798
2.3989902,-0.36391866,9.882068
2.3702598,-0.36511576,9.927557
2.372654,-0.38307226,9.904813
2.4241292,-0.35793316,9.909601
2.4492683,-0.37229836,9.840169
2.4361002,-0.37469256,9.865308
2.396596,-0.36750996,9.874885
2.4169466,-0.3854665,9.941922
2.3953989,-0.3842694,9.892841
2.3642743,-0.39743748,9.927557
2.3427265,-0.39983168,9.958682
2.3918076,-0.36750996,9.916783
2.384625,-0.36750996,9.876082
2.3798366,-0.37469256,9.908403
2.3511062,-0.3866636,9.915586
2.3822308,-0.38187516,9.878476
2.3870192,-0.37828386,9.895236
2.3953989,-0.37229836,9.89763
2.372654,-0.35553896,9.847352
2.3427265,-0.38067806,9.922769
2.385822,-0.39743748,9.89763
2.3535004,-0.39145198,9.910798
2.336741,-0.38067806,9.932345
2.3295584,-0.36750996,9.88925
2.3870192,-0.36272156,9.90601
2.3906105,-0.36631286,9.874885
2.3642743,-0.37229836,9.91798
2.3463178,-0.3842694,9.927557
2.336741,-0.39624038,9.886856
2.373851,-0.39624038,9.91439
2.3678656,-0.36870706,9.896433
2.3810337,-0.39504328,9.884461
2.3535004,-0.36032736,9.89763
2.3116016,-0.37469256,9.951499
2.3558946,-0.39145198,9.91439
2.384625,-0.3866636,9.894038
2.3546975,-0.35314476,9.898827
2.3511062,-0.39384618,9.898827
2.3666685,-0.35913026,9.907207
2.3535004,-0.3890578,9.915586
2.3331497,-0.36511576,9.88925
2.3953989,-0.39384618,9.910798
2.3798366,-0.39863458,9.904813
2.3666685,-0.3890578,9.904813
2.3810337,-0.39863458,9.898827
2.360683,-0.39025488,9.890448
2.3511062,-0.36152446,9.885659
2.3523033,-0.38187516,9.938332
2.3439236,-0.37828386,9.902418
2.3546975,-0.40222588,9.91798
2.3558946,-0.3890578,9.844957
2.3319526,-0.36272156,9.940725
2.3558946,-0.37588966,9.902418
2.3630772,-0.38307226,9.876082
2.4001873,-0.40462008,9.886856
2.384625,-0.37110126,9.88925
2.384625,-0.37948096,9.872491
2.3690627,-0.37708676,9.885659
2.3511062,-0.38067806,9.908403
2.3439236,-0.37708676,9.923966
2.3894134,-0.37708676,9.888053
2.3989902,-0.33638534,9.880871
2.3654714,-0.39025488,9.907207
2.4001873,-0.38067806,9.886856
2.4313118,-0.39145198,9.88925
2.4241292,-0.37469256,9.904813
2.3750482,-0.36750996,9.907207
2.3511062,-0.34715924,9.892841
2.4157495,-0.35913026,9.88925
2.3989902,-0.35673606,9.884461
2.3702598,-0.40102878,9.870096
2.336741,-0.41180268,9.938332
2.3127987,-0.39743748,9.947908
2.372654,-0.37708676,9.908403
2.4109612,-0.35793316,9.853337
2.4157495,-0.34356794,9.870096
2.4061728,-0.36631286,9.89763
2.3870192,-0.36990416,9.902418
2.4241292,-0.37708676,9.922769
2.3906105,-0.37708676,9.923966
2.3630772,-0.37708676,9.89763
2.3546975,-0.3854665,9.907207
2.3822308,-0.39264908,9.911995
2.4289176,-0.38067806,9.900024
2.3750482,-0.3842694,9.91798
2.4133554,-0.37708676,9.8437605
2.36188,-0.37349546,9.953894
2.3546975,-0.36990416,9.894038
2.3989902,-0.34835634,9.896433
2.4361002,-0.36511576,9.850943
2.421735,-0.37828386,9.8916445
2.3798366,-0.37349546,9.886856
2.3774424,-0.39384618,9.916783
2.3523033,-0.36870706,9.870096
2.3535004,-0.37708676,9.952697
2.3882163,-0.3890578,9.878476
2.3930047,-0.36750996,9.854534
2.4037786,-0.40342298,9.939528
2.3678656,-0.36750996,9.91439
2.3439236,-0.36272156,9.903615
2.2984335,-0.39983168,9.974244
2.3187842,-0.39384618,9.980229
2.2996306,-0.39863458,9.895236
2.3702598,-0.4357447,9.96347
2.3822308,-0.37828386,9.855731
2.3666685,-0.33399114,9.921572
2.3834279,-0.37828386,9.93474
2.3630772,-0.36391866,9.809045
2.3750482,-0.37469256,9.896433
2.328361,-0.37948096,9.929952
2.2876596,-0.35793316,9.900024
2.372654,-0.37948096,9.935937
2.3953989,-0.3842694,9.910798
2.3523033,-0.40581718,9.883265
2.3558946,-0.39264908,9.895236
2.3594859,-0.36152446,9.925163
2.4001873,-0.36990416,9.853337
2.4109612,-0.37229836,9.882068
2.4480712,-0.3866636,9.846154
2.4181437,-0.39264908,9.8916445
2.349909,-0.39743748,9.958682
2.3331497,-0.3890578,9.92636
2.4169466,-0.39264908,9.91439
2.4791958,-0.33877954,9.871294
2.3870192,-0.39025488,9.907207
2.3439236,-0.3866636,9.97185
2.409764,-0.36990416,9.879673
2.5378537,-0.37948096,9.865308
2.554613,-0.38067806,9.82341
2.3882163,-0.33758244,9.864111
2.3223755,-0.34356794,9.902418
2.3259668,-0.36511576,9.91798
2.3535004,-0.35314476,9.886856
2.420538,-0.37469256,9.882068
2.3546975,-0.3866636,9.903615
2.327164,-0.36750996,9.932345
2.3056161,-0.35913026,9.941922
2.3630772,-0.37229836,9.879673
2.3834279,-0.35075054,9.860519
2.4001873,-0.35553896,9.904813
2.4169466,-0.3866636,9.90601
2.3535004,-0.36032736,9.874885
2.3187842,-0.37948096,9.907207
2.3295584,-0.39264908,9.92636
2.3834279,-0.37469256,9.919178
2.336741,-0.34715924,9.920375
2.292448,-0.36032736,9.93474
2.3116016,-0.40102878,9.92636
2.3906105,-0.39025488,9.901221
2.3798366,-0.37349546,9.872491
2.3187842,-0.37229836,9.947908
2.2756886,-0.39384618,9.94312
2.3810337,-0.35075054,9.90601
2.3451207,-0.36750996,9.921572
2.3630772,-0.37469256,9.89763
2.3475149,-0.36750996,9.883265
2.360683,-0.34715924,9.884461
2.3427265,-0.36750996,9.9550905
2.2780828,-0.39145198,9.969456
2.3139958,-0.37349546,9.915586
2.3666685,-0.35913026,9.868899
2.3882163,-0.36750996,9.8677025
2.3642743,-0.35553896,9.928755
2.3535004,-0.3878607,9.928755
2.3235726,-0.34955344,9.932345
2.3343468,-0.33039984,9.927557
2.3714569,-0.34715924,9.888053
2.3989902,-0.37708676,9.862914
2.3798366,-0.40342298,9.951499
2.3307555,-0.39624038,9.910798
2.2828712,-0.38307226,9.919178
2.2972364,-0.34715924,9.922769
2.3546975,-0.320823,9.909601
2.3642743,-0.3890578,9.895236
2.3642743,-0.3878607,9.896433
2.2768857,-0.37469256,9.967062
2.2613235,-0.3890578,9.922769
2.3259668,-0.36631286,9.902418
2.3918076,-0.37828386,9.931149
2.3175871,-0.35913026,9.922769
2.3080103,-0.37708676,9.909601
2.3092074,-0.34955344,9.957485
2.3139958,-0.35194764,9.888053
2.3750482,-0.34835634,9.868899
2.4109612,-0.36631286,9.886856
2.4145525,-0.38067806,9.874885
2.3762453,-0.34596214,9.871294
2.2936451,-0.38187516,9.93474
2.2840683,-0.36990416,9.958682
2.3295584,-0.37349546,9.961076
2.327164,-0.37588966,9.880871
2.3570917,-0.33877954,9.884461
2.3199813,-0.35793316,9.91439
2.3714569,-0.36750996,9.865308
2.3247697,-0.36152446,9.907207
2.2481554,-0.3866636,9.929952
2.2613235,-0.34715924,9.967062
2.2996306,-0.39743748,9.947908
2.2936451,-0.37588966,9.939528
2.3247697,-0.36511576,9.925163
2.303222,-0.37828386,9.898827
2.3211784,-0.3866636,9.91439
2.3068132,-0.37828386,9.91439
2.3355439,-0.36990416,9.915586
2.2984335,-0.35673606,9.94312
2.3175871,-0.40222588,9.947908
2.2948422,-0.36750996,9.931149
2.337938,-0.40102878,9.904813
2.3582888,-0.37588966,9.92636
2.336741,-0.36272156,9.911995
2.3463178,-0.37229836,9.90601
2.3511062,-0.37828386,9.904813
2.3415294,-0.39025488,9.909601
2.3008277,-0.35075054,9.919178
2.3343468,-0.36152446,9.88925
2.397793,-0.35553896,9.903615
2.3714569,-0.37110126,9.904813
2.27928,-0.34955344,9.901221
2.304419,-0.36391866,9.933543
2.408567,-0.37588966,9.90601
2.360683,-0.34955344,9.890448
2.2960393,-0.34715924,9.90601
2.304419,-0.39264908,9.962274
2.2852654,-0.35434186,9.933543
2.3127987,-0.37469256,9.908403
2.2864625,-0.37469256,9.879673
2.3092074,-0.39145198,9.931149
2.303222,-0.37469256,9.923966
2.2828712,-0.37469256,9.921572
2.2385786,-0.39025488,9.96347
2.2840683,-0.38307226,9.9550905
2.2972364,-0.38067806,9.901221
2.2505496,-0.40462008,9.895236
2.2661119,-0.39264908,9.961076
2.1739352,-0.35314476,9.922769
2.2098482,-0.36990416,9.9790325
2.328361,-0.40222588,9.89763
2.4073699,-0.427365,9.877279
2.291251,-0.38307226,9.850943
2.171541,-0.36272156,9.947908
2.100912,-0.37110126,10.019734
2.1272483,-0.34476504,10.129868
2.304419,-0.37828386,9.94312
2.517503,-0.37948096,9.849746
2.541445,-0.4177882,9.8042555
2.4061728,-0.37828386,9.91439
2.3008277,-0.3866636,9.986216
2.232593,-0.3866636,9.916783
2.2613235,-0.37229836,9.933543
2.3247697,-0.39504328,9.927557
2.4025815,-0.37349546,9.876082
2.3870192,-0.37588966,9.89763
2.3343468,-0.36272156,9.872491
2.3570917,-0.37349546,9.885659
2.4672248,-0.35553896,9.861717
2.5187001,-0.35913026,9.856929
2.4301147,-0.34835634,9.885659
2.3894134,-0.34117374,9.88925
2.409764,-0.40581718,9.85214
2.4480712,-0.3866636,9.88925
2.373851,-0.37349546,9.932345
2.4013844,-0.3854665,9.909601
2.3750482,-0.3878607,9.922769
2.36188,-0.36152446,9.932345
2.3822308,-0.36870706,9.957485
2.360683,-0.37708676,9.952697
2.348712,-0.37469256,9.874885
2.3642743,-0.36990416,9.915586
2.372654,-0.40222588,9.872491
2.3942018,-0.3878607,9.927557
2.3463178,-0.36870706,9.868899
2.385822,-0.39264908,9.904813
2.3953989,-0.38307226,9.910798
2.3391352,-0.37828386,9.90601
2.3139958,-0.3842694,9.959879
2.3199813,-0.3878607,9.956287
2.3307555,-0.38067806,9.894038
2.3403323,-0.3890578,9.908403
2.3439236,-0.3842694,9.896433
2.2876596,-0.40342298,9.96347
2.2469583,-0.39264908,9.958682
2.303222,-0.37948096,9.902418
2.3439236,-0.39743748,9.896433
2.3511062,-0.36032736,9.85214
2.3546975,-0.35314476,9.876082
2.2876596,-0.36631286,9.937134
2.2840683,-0.39863458,9.93474
2.2601264,-0.36870706,9.933543
2.2840683,-0.36631286,9.904813
2.3391352,-0.3854665,9.886856
2.2936451,-0.37349546,9.91439
2.2182279,-0.36272156,9.940725
2.219425,-0.36391866,9.965864
2.2469583,-0.37110126,9.982624
2.2361844,-0.40222588,9.957485
2.2613235,-0.37588966,9.90601
2.219425,-0.36870706,9.958682
2.1068976,-0.36032736,10.000581
2.4349031,-0.45130703,9.947908
2.7473464,-0.4177882,9.745598
2.6144683,-0.34596214,9.759963
2.5210943,-0.39863458,9.840169
2.4073699,-0.41060558,9.919178
2.4588451,-0.38307226,9.862914
2.4492683,-0.38067806,9.832987
2.3247697,-0.39504328,9.902418
2.3116016,-0.4201824,9.944317
2.2876596,-0.39145198,9.940725
2.337938,-0.40701428,9.901221
2.409764,-0.4213795,9.861717
2.4756045,-0.40462008,9.850943
2.3666685,-0.36990416,9.853337
2.3798366,-0.3842694,9.920375
2.4121583,-0.36032736,9.885659
2.3630772,-0.3866636,9.859323
2.2697031,-0.4201824,9.928755
2.1787236,-0.40940848,9.967062
2.2744915,-0.40102878,9.958682
2.2421699,-0.39743748,9.941922
2.2421699,-0.4333505,9.959879
2.480393,-0.46088383,9.925163
2.8000188,-0.46327803,9.870096
2.72939,-0.34476504,9.719262
2.5354595,-0.38187516,9.841366
2.5031378,-0.36870706,9.878476
2.3882163,-0.35913026,9.882068
2.4049757,-0.40701428,9.919178
2.3810337,-0.40222588,9.94312
2.292448,-0.41180268,9.94312
2.303222,-0.39743748,9.946711
2.3714569,-0.3866636,9.901221
2.4624364,-0.40102878,9.885659
2.540248,-0.415394,9.817424
2.4528596,-0.37469256,9.834184
2.4109612,-0.3878607,9.8677025
2.3642743,-0.37948096,9.953894
2.3822308,-0.3878607,9.907207
2.4361002,-0.39743748,9.8677025
2.3175871,-0.38187516,9.907207
2.31639,-0.4309563,9.921572
2.348712,-0.40701428,9.951499
2.2996306,-0.37110126,9.909601
2.3295584,-0.4141969,9.981427
2.4361002,-0.40342298,9.855731
2.433706,-0.37229836,9.832987
2.3570917,-0.3854665,9.856929
2.3259668,-0.37828386,9.911995
2.372654,-0.39504328,9.904813
2.4432828,-0.36750996,9.848549
2.4552538,-0.39504328,9.903615
2.4013844,-0.39384618,9.999383
2.4253263,-0.40462008,9.896433
2.4612393,-0.39863458,9.853337
2.5474305,-0.39863458,9.871294
2.528277,-0.39743748,9.830592
2.4540567,-0.40462008,9.864111
2.469619,-0.39983168,9.854534
2.5342624,-0.39983168,9.864111
2.5019407,-0.37469256,9.822212
2.44448,-0.35314476,9.868899
2.4349031,-0.39384618,9.883265
2.4899697,-0.40222588,9.925163
2.4396915,-0.38067806,9.85214
2.3918076,-0.38307226,9.88925
2.3630772,-0.3854665,9.903615
2.3870192,-0.39264908,9.908403
2.3942018,-0.39025488,9.884461
2.432509,-0.39983168,9.859323
2.6384103,-0.4225766,9.836577
2.6288335,-0.37948096,9.810242
2.4648306,-0.39863458,9.868899
2.3918076,-0.41060558,9.941922
2.4588451,-0.4261679,9.919178
2.5366566,-0.39863458,9.859323
2.4983494,-0.37588966,9.840169
2.408567,-0.4177882,9.909601
2.396596,-0.39025488,9.911995
2.4013844,-0.40462008,9.909601
2.432509,-0.40821138,9.848549
2.421735,-0.40342298,9.89763
2.4624364,-0.40701428,9.88925
2.4181437,-0.40222588,9.876082
2.4552538,-0.39384618,9.916783
2.4480712,-0.39504328,9.877279
2.4420857,-0.39264908,9.877279
2.4313118,-0.37828386,9.877279
2.4253263,-0.40222588,9.898827
2.3822308,-0.40821138,9.903615
2.4013844,-0.3842694,9.89763
2.397793,-0.37948096,9.861717
2.3630772,-0.3878607,9.85214
2.36188,-0.39624038,9.8916445
2.5127146,-0.45010993,9.932345
2.5845408,-0.39384618,9.810242
2.4121583,-0.34835634,9.840169
2.3068132,-0.39863458,9.957485
2.2709002,-0.415394,9.988609
2.4372973,-0.39384618,9.8677025
2.5366566,-0.39504328,9.838972
2.5210943,-0.36631286,9.818622
2.3906105,-0.38067806,9.932345
2.3594859,-0.39145198,9.896433
2.4169466,-0.39983168,9.900024
2.4349031,-0.39264908,9.885659
2.4145525,-0.38187516,9.885659
2.4169466,-0.3878607,9.933543
2.457648,-0.40342298,9.89763
2.4540567,-0.39624038,9.89763
2.408567,-0.36391866,9.883265
2.4121583,-0.3866636,9.894038
2.4061728,-0.41060558,9.903615
2.4133554,-0.39384618,9.872491
2.4145525,-0.3854665,9.876082
2.396596,-0.3854665,9.879673
2.44448,-0.39145198,9.8916445
2.420538,-0.37229836,9.885659
2.3918076,-0.38307226,9.900024
2.4277205,-0.39743748,9.913192
2.4349031,-0.35314476,9.841366
2.3894134,-0.3854665,9.873688
2.3798366,-0.40102878,9.908403
2.4420857,-0.40102878,9.900024
2.4516625,-0.39264908,9.876082
2.4516625,-0.3890578,9.85214
2.3882163,-0.40940848,9.886856
2.4193408,-0.38307226,9.908403
2.445677,-0.39624038,9.874885
2.4516625,-0.39863458,9.854534
2.432509,-0.3842694,9.868899
2.4145525,-0.37588966,9.900024
2.4277205,-0.39384618,9.8437605
2.4121583,-0.3878607,9.928755
2.4265234,-0.39624038,9.90601
2.4504654,-0.4177882,9.866506
2.4349031,-0.41299978,9.882068
2.4624364,-0.37588966,9.861717
2.408567,-0.38187516,9.877279
2.3942018,-0.3854665,9.89763
2.4109612,-0.3866636,9.895236
2.4468741,-0.39145198,9.88925
2.4480712,-0.3878607,9.866506
2.421735,-0.36391866,9.896433
2.4540567,-0.35793316,9.90601
2.4540567,-0.39264908,9.880871
2.3930047,-0.3854665,9.919178
2.4013844,-0.39863458,9.903615
2.4492683,-0.39145198,9.911995
2.4672248,-0.36631286,9.894038
2.4636335,-0.36511576,9.882068
2.421735,-0.40342298,9.883265
2.4384944,-0.39504328,9.878476
2.3953989,-0.3854665,9.89763
2.360683,-0.36750996,9.908403
2.4025815,-0.4165911,9.900024
2.4588451,-0.39624038,9.940725
2.468422,-0.39145198,9.883265
2.4432828,-0.40701428,9.868899
2.4552538,-0.40222588,9.909601
2.4839842,-0.3842694,9.832987
2.4289176,-0.37229836,9.915586
2.372654,-0.40581718,9.903615
2.4349031,-0.38307226,9.922769
2.4720132,-0.3866636,9.866506
2.4552538,-0.36750996,9.895236
2.4384944,-0.36990416,9.876082
2.4959552,-0.36631286,9.883265
2.4708161,-0.3842694,9.883265
2.4001873,-0.39264908,9.92636
2.3762453,-0.4189853,9.92636
2.5007436,-0.40102878,9.898827
2.468422,-0.37469256,9.884461
2.4732103,-0.35793316,9.876082
2.4133554,-0.38187516,9.947908
2.445677,-0.37229836,9.88925
2.4875755,-0.38307226,9.870096
2.44448,-0.37588966,9.856929
2.3953989,-0.37948096,9.919178
2.457648,-0.3866636,9.884461
2.44448,-0.37469256,9.880871
2.4660277,-0.39743748,9.859323
2.373851,-0.41180268,9.913192
2.4145525,-0.35913026,9.886856
2.4193408,-0.41060558,9.865308
2.409764,-0.39504328,9.93474
2.4277205,-0.36990416,9.855731
2.4504654,-0.38187516,9.859323
2.4049757,-0.38067806,9.911995
2.4121583,-0.39504328,9.902418
2.4636335,-0.3890578,9.834184
2.4372973,-0.37828386,9.878476
2.4061728,-0.38187516,9.90601
2.3906105,-0.38067806,9.85214
2.4349031,-0.37229836,9.8916445
2.3942018,-0.37828386,9.872491
2.3989902,-0.3854665,9.920375
2.4229321,-0.3854665,9.913192
2.4361002,-0.3866636,9.870096
2.420538,-0.37588966,9.932345
2.4492683,-0.39624038,9.91439
2.4372973,-0.39384618,9.854534
2.3798366,-0.35314476,9.901221
2.2960393,-0.36272156,9.977836
2.372654,-0.40102878,9.895236
2.4744074,-0.37110126,9.890448
2.553416,-0.39863458,9.870096
2.5031378,-0.39863458,9.835381
2.3882163,-0.39983168,9.916783
2.3762453,-0.35075054,9.921572
2.4157495,-0.38307226,9.890448
2.4636335,-0.36391866,9.853337
2.5222914,-0.40342298,9.856929
2.4600422,-0.40462008,9.885659
2.433706,-0.37110126,9.880871
2.4384944,-0.3842694,9.92636
2.4863784,-0.37708676,9.864111
2.4947581,-0.37110126,9.840169
2.456451,-0.38067806,9.8916445
2.4899697,-0.36870706,9.900024
2.516306,-0.38307226,9.900024
2.4612393,-0.35913026,9.861717
2.456451,-0.39384618,9.909601
2.4528596,-0.3854665,9.886856
2.4492683,-0.37469256,9.886856
2.5127146,-0.39863458,9.876082
2.4887726,-0.37948096,9.895236
2.493561,-0.36631286,9.877279
2.4420857,-0.39145198,9.908403
2.4361002,-0.3890578,9.916783
2.4768016,-0.3842694,9.831789
2.4744074,-0.36750996,9.890448
2.469619,-0.37469256,9.866506
2.4732103,-0.39504328,9.900024
2.4720132,-0.38067806,9.882068
2.4648306,-0.39145198,9.870096
2.457648,-0.3854665,9.919178
2.4468741,-0.40581718,9.902418
2.4660277,-0.37828386,9.888053
2.4959552,-0.37349546,9.873688
2.433706,-0.3854665,9.909601
2.3930047,-0.40701428,9.903615
2.4265234,-0.3890578,9.894038
2.4468741,-0.37469256,9.871294
2.408567,-0.3842694,9.90601
2.384625,-0.37708676,9.911995
2.4420857,-0.36511576,9.913192
2.4588451,-0.37110126,9.882068
2.44448,-0.38307226,9.880871
2.4480712,-0.37828386,9.895236
2.4301147,-0.39145198,9.874885
2.3989902,-0.38067806,9.8916445
2.4708161,-0.39264908,9.895236
2.480393,-0.39264908,9.907207
2.445677,-0.3866636,9.860519
2.4408886,-0.39624038,9.864111
2.4432828,-0.4165911,9.89763
2.3918076,-0.37708676,9.927557
2.4109612,-0.38187516,9.896433
2.4791958,-0.3890578,9.871294
2.493561,-0.3866636,9.866506
2.432509,-0.37948096,9.883265
2.3762453,-0.37828386,9.896433
2.4181437,-0.38187516,9.927557
2.4552538,-0.37469256,9.885659
2.4133554,-0.38067806,9.873688
2.3989902,-0.39504328,9.892841
2.4468741,-0.36391866,9.878476
2.4372973,-0.3854665,9.879673
2.4265234,-0.37469256,9.874885
2.4061728,-0.3842694,9.888053
2.4624364,-0.3842694,9.91798
2.4109612,-0.37110126,9.850943
2.4193408,-0.3842694,9.849746
2.44448,-0.38067806,9.879673
2.4420857,-0.37708676,9.892841
2.3786395,-0.35314476,9.8916445
2.44448,-0.3854665,9.88925
2.4552538,-0.36750996,9.860519
2.456451,-0.35913026,9.860519
2.4420857,-0.3890578,9.870096
2.373851,-0.39983168,9.937134
2.3702598,-0.4189853,9.920375
2.433706,-0.36032736,9.865308
2.4253263,-0.36152446,9.901221
2.4372973,-0.39743748,9.898827
2.4181437,-0.39025488,9.884461
2.4301147,-0.39264908,9.872491
2.4193408,-0.39743748,9.901221
2.4157495,-0.37828386,9.938332
2.44448,-0.36152446,9.888053
2.4384944,-0.37229836,9.879673
2.4301147,-0.3854665,9.907207
2.4420857,-0.3890578,9.922769
2.44448,-0.36990416,9.853337
2.4133554,-0.3878607,9.900024
2.4420857,-0.3878607,9.888053
2.4588451,-0.37110126,9.877279
2.420538,-0.37349546,9.859323
2.408567,-0.3878607,9.854534
2.4468741,-0.39624038,9.933543
2.4253263,-0.37229836,9.849746
2.4301147,-0.37588966,9.89763
2.4588451,-0.38067806,9.89763
2.4492683,-0.37469256,9.892841
2.3894134,-0.3878607,9.90601
2.3523033,-0.37828386,9.92636
2.397793,-0.3854665,9.885659
2.4241292,-0.37828386,9.862914
2.4277205,-0.39983168,9.923966
2.4540567,-0.3890578,9.848549
2.4408886,-0.36990416,9.90601
2.3822308,-0.37828386,9.89763
2.3870192,-0.37828386,9.919178
2.4265234,-0.39384618,9.921572
2.4289176,-0.36990416,9.903615
2.4157495,-0.36750996,9.90601
2.4241292,-0.36631286,9.879673
2.4480712,-0.37469256,9.890448
2.4492683,-0.37229836,9.842564
2.433706,-0.37708676,9.8916445
2.420538,-0.40581718,9.890448
2.432509,-0.4189853,9.894038
2.4229321,-0.36750996,9.916783
2.3786395,-0.37229836,9.892841
2.4049757,-0.37110126,9.907207
2.4420857,-0.36152446,9.882068
2.3930047,-0.40581718,9.8916445
2.4193408,-0.41060558,9.894038
2.4372973,-0.3866636,9.911995
2.4624364,-0.35434186,9.907207
2.4600422,-0.3854665,9.908403
2.456451,-0.3890578,9.884461
2.4253263,-0.3866636,9.902418
2.3870192,-0.39743748,9.915586
2.3989902,-0.36750996,9.90601
2.408567,-0.39863458,9.903615
2.3810337,-0.37828386,9.898827
2.4121583,-0.40102878,9.892841
2.420538,-0.3890578,9.89763
2.4289176,-0.36990416,9.928755
2.4744074,-0.3878607,9.890448
2.4432828,-0.39145198,9.880871
2.3642743,-0.3866636,9.91798
2.3511062,-0.3842694,9.933543
2.4121583,-0.39743748,9.91439
2.420538,-0.4165911,9.890448
2.4157495,-0.37229836,9.902418
2.3630772,-0.36870706,9.91439
2.384625,-0.37229836,9.91439
2.432509,-0.37948096,9.892841
2.4025815,-0.3854665,9.85214
2.4145525,-0.40462008,9.91798
2.3953989,-0.3878607,9.919178
2.3702598,-0.33518824,9.922769
2.4121583,-0.40222588,9.89763
2.4025815,-0.39025488,9.895236
2.4181437,-0.36152446,9.946711
2.3463178,-0.39264908,9.911995
2.36188,-0.4141969,9.946711
2.4229321,-0.36511576,9.93474
2.4720132,-0.34476504,9.886856
2.4588451,-0.37828386,9.871294
2.4648306,-0.35075054,9.88925
2.4229321,-0.38067806,9.874885
2.3690627,-0.39504328,9.91798
2.3894134,-0.37469256,9.952697
2.44448,-0.38307226,9.841366
2.4432828,-0.415394,9.866506
2.3870192,-0.39863458,9.940725
2.3187842,-0.4165911,9.953894
2.3068132,-0.3890578,9.933543
2.373851,-0.36750996,9.91439
2.4768016,-0.37349546,9.872491
2.4624364,-0.34117374,9.882068
2.4193408,-0.35314476,9.870096
2.348712,-0.39863458,9.940725
2.3942018,-0.39863458,9.927557
2.408567,-0.37948096,9.921572
2.397793,-0.39504328,9.910798
2.3822308,-0.37229836,9.862914
2.3451207,-0.4165911,9.950302
2.384625,-0.3854665,9.8916445
2.3834279,-0.35793316,9.935937
2.396596,-0.37828386,9.913192
2.4277205,-0.36631286,9.890448
2.457648,-0.39145198,9.861717
2.4001873,-0.40462008,9.921572
2.373851,-0.3854665,9.950302
2.3953989,-0.40102878,9.901221
2.4193408,-0.37708676,9.89763
2.3558946,-0.36391866,9.939528
2.327164,-0.37708676,9.927557
2.3582888,-0.40701428,9.901221
2.3810337,-0.3842694,9.885659
2.3953989,-0.40102878,9.884461
2.3702598,-0.39264908,9.883265
2.3666685,-0.37828386,9.877279
2.349909,-0.38067806,9.874885
2.3307555,-0.35434186,9.949105
2.3630772,-0.36391866,9.856929
2.4073699,-0.3854665,9.880871
2.3894134,-0.37588966,9.868899
2.3104045,-0.37948096,9.8916445
2.2900538,-0.40821138,9.96347
2.2409728,-0.3878607,9.959879
2.1883004,-0.37110126,9.986216
2.1571758,-0.3866636,9.983821
2.2122424,-0.4249708,9.970653
2.2768857,-0.4225766,9.969456
2.2649148,-0.4177882,9.911995
2.231396,-0.39743748,9.951499
2.2002714,-0.3890578,9.944317
2.195483,-0.34955344,9.975441
2.2720973,-0.37948096,9.956287
2.3451207,-0.38187516,9.880871
2.3666685,-0.40222588,9.973047
2.3295584,-0.36032736,9.879673
2.3295584,-0.39145198,9.946711
2.408567,-0.40462008,9.923966
2.3882163,-0.40821138,9.939528
2.3750482,-0.36990416,9.937134
2.4528596,-0.39264908,9.927557
2.5103204,-0.3854665,9.832987
2.5390508,-0.38067806,9.862914
2.5067291,-0.36391866,9.850943
2.4863784,-0.37229836,9.898827
2.493561,-0.38187516,9.861717
2.4839842,-0.36870706,9.907207
2.4049757,-0.3890578,9.8916445
2.3451207,-0.39504328,9.919178
2.3953989,-0.39863458,9.9550905
2.4061728,-0.36750996,9.886856
2.4013844,-0.39863458,9.888053
2.3894134,-0.40581718,9.937134
2.3415294,-0.39025488,9.932345
2.3415294,-0.35913026,9.933543
2.3056161,-0.38067806,9.938332
2.3774424,-0.3878607,9.900024
2.409764,-0.40821138,9.879673
2.3235726,-0.39025488,9.945514
2.2744915,-0.36152446,9.953894
2.3020248,-0.36631286,9.931149
2.372654,-0.4189853,9.894038
2.3570917,-0.39743748,9.922769
2.3259668,-0.37708676,9.908403
2.3427265,-0.37349546,9.935937
2.3594859,-0.40462008,9.927557
2.3798366,-0.39025488,9.895236
2.3451207,-0.3878607,9.932345
2.3068132,-0.41060558,9.919178
2.3343468,-0.3890578,9.904813
2.3319526,-0.34715924,9.982624
2.3319526,-0.37349546,9.88925
2.384625,-0.36511576,9.928755
2.373851,-0.36750996,9.901221
2.373851,-0.37948096,9.898827
2.3894134,-0.41060558,9.928755
2.3702598,-0.3842694,9.883265
2.3175871,-0.36272156,9.904813
2.3906105,-0.40581718,9.920375
2.4552538,-0.36990416,9.901221
2.4588451,-0.37469256,9.901221
2.4468741,-0.3866636,9.901221
2.4995465,-0.39264908,9.862914
2.4756045,-0.37828386,9.858126
2.408567,-0.37708676,9.907207
2.3415294,-0.36631286,9.890448
2.3750482,-0.39145198,9.980229
2.4025815,-0.36870706,9.885659
2.4157495,-0.3842694,9.908403
2.4552538,-0.35194764,9.908403
2.421735,-0.37948096,9.945514
2.3774424,-0.37708676,9.902418
2.3882163,-0.36990416,9.939528
2.4121583,-0.39025488,9.90601
2.3870192,-0.40222588,9.871294
2.337938,-0.41060558,9.911995
2.3702598,-0.39624038,9.927557
2.4037786,-0.38307226,9.922769
2.4157495,-0.36631286,9.846154
2.3942018,-0.37708676,9.909601
2.4229321,-0.39384618,9.922769
2.3882163,-0.36511576,9.903615
2.3654714,-0.35793316,9.941922
2.36188,-0.4165911,9.938332
2.4181437,-0.39145198,9.890448
2.457648,-0.36750996,9.854534
2.3762453,-0.39145198,9.913192
2.3750482,-0.39384618,9.904813
2.3822308,-0.36152446,9.908403
2.409764,-0.37469256,9.909601
2.4145525,-0.36870706,9.903615
2.408567,-0.37229836,9.890448
2.4001873,-0.36990416,9.937134
2.4037786,-0.36990416,9.941922
2.4253263,-0.38307226,9.892841
2.397793,-0.3878607,9.939528
2.4277205,-0.3854665,9.909601
2.4420857,-0.37588966,9.902418
2.5019407,-0.37110126,9.858126
2.5115175,-0.37110126,9.841366
2.4253263,-0.38187516,9.877279
2.3798366,-0.37588966,9.923966
2.4660277,-0.37948096,9.898827
2.4995465,-0.39025488,9.859323
2.4157495,-0.39504328,9.949105
2.3642743,-0.35075054,9.923966
2.396596,-0.36631286,9.902418
2.4947581,-0.39983168,9.865308
2.504335,-0.36870706,9.818622
2.433706,-0.39504328,9.888053
2.420538,-0.36511576,9.907207
2.4899697,-0.37469256,9.8437605
2.4193408,-0.37229836,9.886856
2.4600422,-0.39145198,9.900024
2.4648306,-0.36272156,9.866506
2.468422,-0.39983168,9.885659
2.4313118,-0.3854665,9.894038
2.3594859,-0.38067806,9.909601
2.3594859,-0.40821138,9.953894
2.4037786,-0.38067806,9.903615
2.4408886,-0.39983168,9.861717
2.5222914,-0.38187516,9.888053
2.4660277,-0.35553896,9.861717
2.396596,-0.37588966,9.8677025
2.3762453,-0.38067806,9.923966
2.4349031,-0.39025488,9.902418
2.4361002,-0.33997664,9.907207
2.397793,-0.36272156,9.874885
2.4241292,-0.37469256,9.865308
2.4624364,-0.34835634,9.822212
2.4504654,-0.39145198,9.904813
2.3894134,-0.33877954,9.929952
2.408567,-0.37948096,9.885659
2.4241292,-0.34835634,9.91439
2.4732103,-0.34835634,9.840169
2.445677,-0.36631286,9.871294
2.445677,-0.37349546,9.898827
2.432509,-0.39863458,9.862914
2.4133554,-0.40821138,9.908403
2.4181437,-0.3890578,9.847352
2.4061728,-0.34476504,9.900024
2.3570917,-0.36152446,9.927557
2.384625,-0.37469256,9.967062
2.4361002,-0.35673606,9.8437605
2.4157495,-0.3878607,9.920375
2.372654,-0.4357447,9.944317
2.292448,-0.37469256,9.947908
2.3415294,-0.37828386,9.94312
2.4265234,-0.24660277,9.8677025
2.4624364,-0.30286652,9.880871
2.4636335,-0.4189853,9.902418
2.6288335,-0.44771573,9.835381
2.6743233,-0.39384618,9.7863
2.6647465,-0.40222588,9.7719345
2.4660277,-0.40462008,9.907207
2.3319526,-0.30526072,9.958682
2.4253263,-0.34356794,9.956287
2.528277,-0.45010993,9.841366
2.4827871,-0.4201824,9.907207
2.4372973,-0.37229836,9.88925
2.396596,-0.36272156,9.876082
2.4851813,-0.31124622,9.865308
2.5127146,-0.2777274,9.807847
2.4899697,-0.32441434,9.838972
2.3642743,-0.33518824,9.880871
2.183512,-0.35553896,9.994595
1.9488802,-0.35075054,10.079589
1.7992426,-0.46447513,10.357317
2.7569232,-0.5506664,9.8042555
2.9759927,-0.4381389,9.533711
2.7018566,-0.4225766,9.7803135
2.2170308,-0.34715924,9.974244
2.2852654,-0.40222588,9.938332
2.4827871,-0.36870706,9.817424
2.5306711,-0.37349546,9.862914
2.3307555,-0.34596214,9.916783
2.2397757,-0.3878607,9.951499
2.2242134,-0.37828386,9.962274
2.2972364,-0.427365,9.940725
2.3570917,-0.40821138,9.903615
2.2254105,-0.4189853,9.920375
2.1667526,-0.41060558,9.993398
2.112883,-0.41180268,10.024523
2.1859062,-0.41060558,10.056845
2.2888567,-0.50397944,9.894038
2.231396,-0.38307226,9.927557
2.3403323,-0.38067806,9.946711
2.3295584,-0.4237737,9.968259
2.4061728,-0.37110126,9.870096
2.5222914,-0.32680854,9.763555
2.5007436,-0.36391866,9.825804
2.3654714,-0.3890578,9.855731
2.1775265,-0.37349546,9.962274
2.1188686,-0.39384618,9.999383
2.2122424,-0.39384618,9.996989
2.292448,-0.36870706,9.91798
2.2218192,-0.37948096,9.970653
2.1200657,-0.39145198,10.02572
2.1535845,-0.41060558,10.04607
2.255338,-0.4189853,9.909601
2.2637177,-0.40102878,9.89763
2.207454,-0.39025488,9.931149
2.0973208,-0.45130703,9.937134
2.1499932,-0.39983168,10.01734
2.2158337,-0.40581718,9.92636
2.1775265,-0.4297592,10.012551
2.0937295,-0.4189853,9.974244
2.1033063,-0.40222588,9.982624
2.232593,-0.34596214,9.953894
2.2756886,-0.39145198,9.91798
2.2038627,-0.40342298,9.944317
2.1440077,-0.37469256,9.944317
2.1021092,-0.38067806,9.949105
2.146402,-0.4429273,9.974244
2.1571758,-0.4165911,9.976639
2.043451,-0.38187516,10.016143
1.9883845,-0.40462008,10.011354
2.1284454,-0.4249708,10.024523
2.2110453,-0.40701428,9.920375
2.1140802,-0.37828386,9.986216
2.0578163,-0.38067806,9.969456
2.0949266,-0.4177882,10.013748
2.1057005,-0.415394,10.023325
2.1080947,-0.44532153,10.032902
2.2146366,-0.34596214,9.951499
2.2373815,-0.33279404,9.935937
2.1404164,-0.37708676,9.872491
2.0326772,-0.39863458,9.999383
2.0147207,-0.39384618,9.992201
2.042254,-0.4297592,9.964667
2.1559787,-0.39983168,9.964667
2.1392193,-0.35194764,9.909601
2.1140802,-0.37349546,9.916783
2.1033063,-0.35793316,9.970653
2.1188686,-0.37229836,10.00896
2.1140802,-0.39504328,9.982624
2.1811178,-0.38067806,9.938332
2.1667526,-0.39145198,9.907207
2.067393,-0.39264908,9.981427
2.0147207,-0.4369418,10.061633
1.9692309,-0.39624038,10.031705
2.0590134,-0.39624038,10.010158
2.1751323,-0.39624038,10.011354
2.2170308,-0.40581718,9.916783
2.1619642,-0.4201824,9.944317
2.1799207,-0.46088383,9.944317
2.1392193,-0.3866636,9.882068
2.087744,-0.33279404,9.925163
2.1404164,-0.32561144,9.944317
2.1380222,-0.29448682,9.969456
2.2517467,-0.39863458,9.933543
2.2170308,-0.39863458,9.957485
2.1045034,-0.40102878,10.004171
2.079364,-0.40940848,10.010158
2.0961237,-0.3878607,9.982624
2.2960393,-0.37229836,9.920375
2.3798366,-0.33039984,9.879673
2.397793,-0.34715924,9.821015
2.3307555,-0.39264908,9.841366
2.2709002,-0.39025488,9.974244
2.232593,-0.35434186,9.879673
2.2996306,-0.3890578,9.849746
2.267309,-0.4369418,9.892841
2.2134395,-0.37110126,9.964667
2.2337902,-0.34476504,9.975441
2.208651,-0.36032736,9.88925
2.1990743,-0.439336,9.958682
2.15957,-0.34476504,9.980229
2.0973208,-0.35434186,9.958682
2.0386627,-0.39983168,10.00896
2.03148,-0.3890578,10.013748
2.0626047,-0.37110126,9.977836
2.0973208,-0.4201824,9.998186
2.0231004,-0.39863458,9.995792
1.9512744,-0.4297592,9.998186
1.9488802,-0.41299978,10.047267
1.9069817,-0.38307226,10.028113
1.910573,-0.4261679,10.018537
1.8866309,-0.39025488,10.0748005
1.9572599,-0.41180268,9.982624
1.9093759,-0.3854665,10.020931
1.8710686,-0.3842694,10.030508
1.8243817,-0.37588966,10.029311
1.7764976,-0.38187516,10.067618
1.7860745,-0.4345476,10.00896
1.7298107,-0.427365,10.092757
1.6436194,-0.4441244,10.101137
1.5729905,-0.4177882,10.121488
1.6364368,-0.46088383,10.105926
1.7537527,-0.48123455,10.096349
1.7824832,-0.4177882,10.0748005
1.7980455,-0.34117374,10.014946
1.8363527,-0.37349546,9.991004
1.8543092,-0.36870706,10.042479
1.9632454,-0.39025488,10.000581
1.8734628,-0.38187516,10.055647
1.8004397,-0.4417302,9.999383
1.8016368,-0.4441244,10.03769
1.7848774,-0.40821138,9.973047
1.8267759,-0.41180268,9.982624
1.9213469,-0.38067806,9.992201
2.0949266,-0.36511576,9.992201
1.958457,-0.39025488,9.976639
1.8339585,-0.4213795,10.09156
1.8459295,-0.4189853,10.1143055
1.8722657,-0.38187516,9.996989
1.9237411,-0.4201824,9.992201
2.0721815,-0.4225766,9.961076
2.043451,-0.40581718,9.982624
1.9369092,-0.3878607,9.993398
1.863886,-0.415394,10.011354
1.8974048,-0.4357447,10.052056
1.9572599,-0.41060558,9.976639
1.9189527,-0.40581718,9.9790325
1.934515,-0.40581718,10.049662
1.9452889,-0.415394,9.981427
1.8926164,-0.37828386,10.014946
1.9452889,-0.39624038,10.061633
2.0159178,-0.39145198,9.962274
1.9740193,-0.39384618,9.920375
1.8962077,-0.37708676,10.0029745
1.9189527,-0.4177882,10.038888
1.8590976,-0.427365,10.058042
1.8866309,-0.40462008,10.020931
1.9261353,-0.4345476,10.032902
1.9500773,-0.39624038,10.001778
1.910573,-0.4213795,9.988609
1.9153614,-0.37349546,10.0269165
1.8602947,-0.39624038,10.00896
1.8782512,-0.41299978,10.012551
1.9213469,-0.4225766,9.981427
1.9596541,-0.38067806,10.019734
1.9536686,-0.35913026,9.975441
1.8710686,-0.39983168,9.998186
1.7884687,-0.37708676,10.04607
1.8016368,-0.31603462,9.991004
1.8590976,-0.23463176,10.011354
1.8423382,-0.11492168,9.742006
2.1416135,-0.02633622,9.964667
2.3056161,-0.22505496,9.90601
2.1404164,-0.32561144,10.068815
1.9033904,-0.4249708,10.087969
1.7525556,-0.38307226,10.067618
1.8842367,-0.49559975,10.096349
1.8483237,-0.5710171,10.029311
1.5693992,-0.36750996,9.985018
1.1923125,-0.39384618,9.987412
1.0726024,-0.3842694,10.263943
1.151611,-0.5662287,9.859323
1.079785,-0.61890113,10.205285
1.1504139,-0.6979098,10.44231
1.0594343,-0.88944596,10.535685
0.9696517,-0.9864111,10.805033
1.2162545,-1.033098,10.861296
0.7218518,-0.9959879,10.907983
0.18435353,-1.0342951,11.058818
0.5554548,-1.2078748,10.307038
0.6560113,-1.3371617,9.93474
0.33877954,-1.2940661,9.953894
0.5590461,-1.3371617,9.925163
0.48243165,-1.400608,9.900024
1.412579,-0.9600749,10.375273
0.9888053,-0.9959879,9.888053
0.45250413,-1.1875241,10.512939
0.20709845,-1.3706805,10.915166
0.005985504,-1.4975731,11.145009
-0.17597382,-1.5777789,11.22282
-0.08738836,-1.70946,11.002554
0.10055647,-1.9249382,10.899603
0.48123455,-2.054225,10.717644
0.62847793,-2.1883004,10.527305
0.5398925,-2.0231004,10.031705
0.6895301,-1.9883845,9.508572
1.0462662,-1.9907787,9.064447
1.6567876,-2.183512,9.003395
2.1260512,-2.7569232,9.175778
1.8267759,-3.0202854,9.506178
1.3503298,-3.2752678,9.655815
1.8674773,-3.8235402,10.080787
2.0649989,-3.9683893,9.970653
2.0207062,-4.027047,10.272323
1.7070658,-4.2940006,10.031705
1.483208,-4.2999864,9.707291
2.0709844,-4.4424415,9.405622
2.304419,-4.405331,8.488642
2.5617957,-4.578911,8.552089
2.6647465,-5.0876784,8.392874
3.0418332,-5.637148,8.759187
2.7952304,-5.825093,8.377312
2.7377696,-5.9304376,8.597578
3.084929,-6.0357823,8.269572
3.3854012,-6.191406,8.632295
3.9671922,-6.4499793,8.684967
3.8522706,-6.0561333,8.210915
3.7074213,-5.7496753,7.9092455
3.7445314,-5.471948,7.1945763
3.6044707,-5.1259856,6.963536
3.9312792,-5.213374,6.5864487
4.572925,-5.415684,6.3338604
4.5561657,-5.583278,5.99149
4.8243165,-5.9064956,6.2345014
4.8267107,-6.353014,6.194997
4.9069166,-6.5924344,6.1770406
4.301183,-6.479907,5.7125654
3.550601,-6.183026,5.5497594
3.4213142,-6.1040173,5.386954
3.855862,-6.155493,5.0266266
4.3239284,-6.4739213,5.106832
5.3342814,-7.195773,5.3235073
5.353435,-7.5106106,5.011064
4.9655743,-7.750031,4.915296
4.3777976,-7.952341,4.7201686
3.8295257,-7.715315,4.471172
3.3865983,-7.240066,3.8893807
2.801216,-6.7923503,3.6176388
2.12246,-6.8091097,3.7217865
1.7812861,-7.785944,4.2221746
1.8327614,-8.661025,4.620809
2.597709,-8.463503,4.209007
2.896984,-8.106767,3.678691
2.7928362,-8.383297,3.4476504
2.5103204,-9.263166,3.8307228
2.4947581,-10.181343,4.5980644
2.8287494,-10.335769,4.8494554
3.0561984,-10.073604,4.247314
2.6791117,-9.957485,3.6379895
1.9740193,-9.79827,3.441665
1.3227965,-9.506178,3.6140475
0.6739678,-9.088389,4.164714
0.35075054,-8.76637,4.859032
0.15801731,-8.504205,5.1247888
0.545878,-8.513782,5.321113
1.1073183,-8.48984,5.3223104
1.5646108,-8.36175,5.481525
2.3319526,-8.485051,5.7005944
2.5558102,-8.483853,5.887342
2.36188,-8.522161,5.8586116
2.3307555,-9.489418,5.3127337
2.135628,-10.18254,5.878962
3.5697548,-10.31063,8.283937
5.60722,-9.940725,9.680955
5.270835,-8.371326,8.202535
4.173094,-7.5800424,5.2863975
3.6032736,-7.5046253,3.810372
3.3973722,-7.553706,3.301604
3.2465374,-7.8757267,3.0753522
2.8766334,-8.115147,2.8335378
2.8814218,-8.248025,2.5139117
3.229778,-8.303091,2.3834279
3.3542767,-8.349778,2.3235726
3.5326445,-8.470686,2.1260512
3.7014358,-8.525752,1.7034745
3.6822822,-8.744822,1.520318
3.5697548,-9.01776,1.7345991
3.5458126,-9.078813,1.887828
3.654749,-9.181764,2.0003555
3.6176388,-9.197326,2.0159178
3.4644098,-9.057265,1.9812019
3.3542767,-8.856153,1.6460136
3.2573113,-8.693346,1.4053963
3.1555579,-8.511387,1.3994108
3.1651347,-8.617929,1.7166426
3.1974564,-8.833407,2.1631613
3.0873232,-8.734048,2.634819
3.028665,-8.857349,2.9053638
2.6408045,-10.13705,2.5127146
2.8215668,-12.665327,2.8443117
3.3626564,-13.354857,3.4560301
4.3897686,-12.10269,3.6056678
4.7189717,-11.180922,3.702633
4.10845,-10.104729,3.5913026
3.3734303,-9.260772,2.9412768
2.585738,-9.449914,2.421735
2.1883004,-9.659407,2.5773582
2.3582888,-9.5385,3.3901896
2.3774424,-9.027337,4.3861775
2.553416,-8.364143,4.8781857
3.0023289,-7.633912,4.5777135
3.3423057,-6.825869,4.309563
3.7014358,-6.578069,4.104859
4.0019083,-6.417658,3.1280246
3.8127663,-5.8215013,3.064578
3.5805287,-5.896919,3.3530796
2.9496565,-6.564901,4.357447
2.7521348,-7.0964136,4.644751
3.3087866,-7.0712748,4.2544966
3.7193923,-7.1634517,4.2102036
4.027047,-7.7368627,4.272453
3.9588125,-8.013393,4.0545807
3.7576995,-8.342596,4.1718965
3.7924154,-8.852561,4.5178585
3.834314,-9.26556,5.133168
3.9863458,-9.858126,5.4803276
3.6008794,-10.469844,5.09127
3.1675289,-11.423933,4.3035774
3.2225955,-12.073959,4.534618
2.870648,-11.055226,4.995502
2.4995465,-9.519346,5.3881507
2.31639,-7.9930425,4.6160207
2.4971523,-7.501034,2.9029696
2.9580362,-8.209718,2.4241292
3.9013517,-8.75799,2.4169466
4.4364557,-9.241618,2.9460652
4.1264067,-9.76116,3.1615434
3.881001,-9.79827,3.3770216
3.916914,-9.52174,2.5929205
3.690662,-9.257181,2.183512
3.6296098,-9.31105,2.2397757
3.787627,-9.090784,2.0817583
3.6499605,-8.699332,2.1152773
3.0753522,-8.49343,2.3092074
2.6527755,-8.376115,2.693477
2.468422,-8.2995,2.9771898
2.5115175,-8.468291,3.0418332
2.7257986,-8.774749,2.979584
2.717419,-9.096769,3.1591492
2.801216,-9.721656,3.1854854
2.9400797,-10.329783,3.2609026
2.778471,-10.53329,3.6272156
2.541445,-10.353725,4.048595
2.3535004,-10.498574,3.776853
2.124854,-11.808203,4.0617633
1.9680338,-11.36767,5.175067
1.8662802,-9.623494,5.3199162
1.7729063,-9.367314,5.1690817
1.4508862,-9.67856,4.677073
1.2665327,-10.232818,4.247314
0.9959879,-10.472239,5.007473
1.2605472,-10.583569,5.9890957
1.210269,-10.042479,6.4392056
1.0342951,-9.49301,6.4906807
0.58418524,-9.012972,6.0944405
0.30166942,-8.412027,5.7508726
0.107739076,-8.098388,5.8107276
0.073023155,-7.9008656,5.93762
-0.38067806,-7.4591355,6.3230867
-0.62608373,-6.927623,6.4463882
-0.5363012,-6.5265937,6.59004
-0.39145198,-6.1183825,6.405687
-0.6536171,-5.671864,6.277597
-0.9708488,-5.2744265,6.1159883
-0.92176765,-5.151125,6.1662664
-0.6931214,-5.3163247,6.8103065
-0.5446809,-5.4551888,7.337031
-0.439336,-5.590461,7.860164
-0.39025488,-5.815516,7.9236107
-0.5650316,-5.865794,7.7907324
-0.6356605,-5.93762,8.356961
-0.9756372,-6.257246,10.042479
-1.2509704,-6.727707,11.405977
-1.8447324,-6.7025676,11.253945
-1.7705121,-5.7508726,10.861296
-0.24420857,-5.559336,9.581595
3.3961751,-6.367379,6.9360023
8.971074,-6.694188,5.2624555
12.988544,-5.707777,4.656722
12.561179,-5.100847,6.2105594
8.583213,-5.1247888,7.536947
5.391742,-4.984728,8.4826565
3.9552212,-4.4568067,8.740033
3.7325604,-4.0892963,8.62152
4.1299977,-3.9923313,7.9667063
4.2293572,-3.738546,7.3430166
4.26527,-3.5577838,7.231686
4.1276035,-3.6296098,7.20535
4.277241,-3.691859,7.043741
4.4807487,-3.7253778,6.8402343
4.8518496,-3.7948096,6.7684083
5.434838,-3.9839516,6.218939
6.133945,-3.9923313,6.0106435
5.8358665,-3.855862,5.66947
5.695806,-3.7349546,4.747702
6.6283474,-3.8989575,4.1371803
6.695385,-3.891775,4.1120415
6.4128695,-3.7708676,4.309563
6.2979474,-3.7433343,4.465186
5.9148755,-3.655946,4.8506527
4.56694,-3.5673606,5.6922145
4.07134,-3.515885,5.1463366
5.199009,-3.669114,4.699818
6.0489507,-3.799598,4.6603136
6.5337763,-3.7349546,4.3981485
7.097611,-3.549404,4.1706996
7.2125325,-3.4680011,4.256891
7.0724716,-3.5242648,4.1826706
7.517793,-3.4847605,4.1826706
7.989451,-3.3746274,3.7852328
8.239645,-3.3782187,3.5446155
8.36175,-3.3255463,3.5206735
8.409634,-3.2513258,3.5075054
7.991845,-3.2920272,3.5972881
7.740454,-3.490746,3.6415808
7.7931266,-3.7014358,3.2082303
7.807492,-3.8486793,2.7688942
7.714118,-4.0545807,2.3235726
7.5082164,-4.367024,1.6687586
7.067683,-4.793192,1.3395559
6.625953,-5.2301335,1.5478514
6.6666546,-5.603629,2.1859062
6.6307416,-5.7185507,2.9891608
6.327875,-5.9160724,3.454833
5.731719,-6.4152637,3.8235402
5.257667,-6.8773446,4.2880154
5.118803,-7.302315,5.221754
4.938041,-7.657854,5.828684
4.8458643,-7.914034,6.0226145
4.996699,-8.119935,6.0489507
5.305551,-8.2169,6.126762
5.647922,-8.400057,5.8083334
6.159084,-8.7053175,5.4180784
6.667852,-8.887277,5.234922
7.047333,-8.847773,5.1678843
7.3873096,-8.9040365,4.927267
7.493851,-8.835801,4.5657425
7.3310456,-8.4108305,4.2556934
6.815095,-7.848193,4.355053
5.8933277,-7.595605,4.3358994
5.3462524,-7.513005,4.4005427
5.1798553,-7.2484455,4.423288
5.057751,-7.049727,4.449624
5.2205567,-6.9383965,4.2197804
5.5461683,-6.9168487,3.6343982
5.708974,-6.9970546,3.1771057
5.747281,-7.1490865,3.0059202
5.7257333,-7.3430166,2.8886044
5.7616463,-7.61835,2.8886044
5.7760115,-7.8505874,2.7724855
5.6778493,-7.991845,2.7593174
5.5880666,-8.064868,2.7234044
5.5270147,-8.050503,2.6288335
5.2720323,-7.9702973,2.5629928
5.149928,-7.9954367,2.4959552
5.21936,-8.153454,2.6491842
5.400122,-8.350976,2.8898015
5.2397103,-8.342596,2.9388826
4.8662148,-8.185776,2.8694508
4.734534,-8.1642275,2.8083985
4.9667716,-8.159439,2.658761
5.42167,-8.098388,2.5701754
5.741296,-8.212111,2.5689783
6.1219735,-8.295909,2.6491842
6.381745,-8.305486,2.822764
6.530185,-8.505402,3.028665
6.591237,-8.65025,3.3746274
6.3745623,-8.75799,3.775656
6.131551,-8.797494,3.915717
6.0728927,-8.676587,3.6535518
6.2464724,-8.580819,3.4344823
6.420052,-8.665813,3.2788591
6.135142,-8.711303,3.072958
5.7029886,-8.67539,2.9592333
5.16549,-8.773552,3.0310593
4.6818614,-8.862138,2.9700072
4.462792,-8.815451,2.9400797
4.5274353,-8.67539,2.7090392
4.63278,-8.498219,2.554613
4.4196963,-8.37013,2.3989902
4.4400473,-8.159439,2.2266076
4.3119574,-7.961918,2.146402
4.0198646,-7.9104424,2.3535004
3.6978445,-8.025364,2.3139958
3.7074213,-8.380903,2.1655555
3.667917,-8.418014,2.27928
3.4560301,-8.337808,2.552219
3.2261868,-8.558074,2.633622
2.980781,-9.470264,2.5845408
2.7353754,-10.46745,2.9352913
2.5091233,-10.8864355,3.4871547
2.4253263,-10.520123,3.8175547
2.469619,-9.986216,3.7421372
2.3894134,-9.514558,3.3865983
2.19668,-9.421184,3.0693667
2.0326772,-9.853337,2.858677
1.9967642,-10.023325,3.0550013
1.7621324,-9.616311,3.4452562
1.602918,-9.23683,3.570952
1.5406688,-8.887277,3.3865983
1.6292542,-8.421604,3.1890767
1.8195933,-7.9750857,2.790442
1.9883845,-7.6949644,2.9999347
1.9297266,-7.6949644,3.0250738
2.099715,-7.878121,3.2130187
1.8866309,-8.001422,3.3482912
1.6962919,-8.157045,3.6655228
1.804031,-8.366538,3.5913026
2.1033063,-8.441956,3.750517
1.7046716,-8.440758,4.1838675
1.447295,-8.556877,4.1216183
1.9895816,-8.732851,3.4955344
2.5187001,-8.579621,3.3530796
2.0135236,-8.60117,4.4196963
1.2904748,-9.160215,5.9890957
0.51116204,-9.817424,6.8091097
-0.06344634,-10.139444,6.7983356
-0.29927522,-10.360908,6.2380924
-0.1448492,-10.656591,5.5162406
-0.090979666,-10.757148,5.2875943
-0.20709845,-10.842142,5.6407394
-0.06943185,-10.97502,5.7760115
0.18674773,-11.5077305,5.5006785
0.62967503,-11.784261,5.470751
0.9684546,-10.788273,5.448006
1.3826514,-10.5045595,5.2037973
1.4460979,-9.722853,4.8494554
1.2066777,-8.84059,4.5525746
0.9900024,-8.304289,4.06296
0.78649527,-7.6626425,3.6032736
0.78410107,-7.513005,3.2513258
0.9959879,-7.467515,3.2082303
1.0953473,-7.3430166,3.5913026
1.2521675,-7.4711065,3.9827545
1.5574282,-7.6147585,4.110844
1.7741034,-7.6590514,3.9995139
1.8423382,-7.7488337,3.7612908
1.9716251,-7.789535,3.2980127
2.2900538,-7.5321584,2.802413
2.7162218,-7.3777328,2.6120741
3.0322564,-7.430405,2.4408886
3.0921116,-7.5788455,2.360683
3.1280246,-7.445967,2.7988217
3.3877954,-7.1131735,3.3674448
3.7217865,-6.851008,3.9839516
3.549404,-7.0832458,4.3394904
3.3207579,-7.595605,4.344279
3.0346506,-8.324639,4.1383777
2.5103204,-9.624691,4.2784386
1.5562311,-11.1653595,4.643554
1.0115502,-12.308591,4.656722
1.1456255,-12.951434,4.4005427
1.471237,-13.345281,3.8714242
2.0003555,-13.338098,3.4045548
2.3870192,-14.062344,3.217807
2.598906,-15.0715,3.6631286
2.8179753,-13.200431,4.3502645
2.705448,-10.3453455,4.665102
1.435324,-7.8589673,4.036624
-0.29688102,-6.575675,2.0099323
0.19273324,-7.1155677,0.019153614
0.025139118,-7.6123643,0.29927522
0.1376666,-8.189367,1.3970166
0.60812724,-8.597578,2.0721815
0.80924016,-8.550891,2.480393
0.9600749,-8.286332,2.7832594
1.3108255,-7.881712,2.822764
1.9117701,-7.5920134,2.6898856
2.4624364,-7.381324,2.7281928
2.8921957,-7.395689,2.540248
3.1112652,-7.551312,2.7257986
2.9700072,-7.8170686,3.4464533
2.8562827,-8.224083,4.26527
2.6839,-8.586804,4.602853
2.4241292,-8.589199,4.4208937
2.3798366,-8.444349,4.1240125
2.4145525,-8.3868885,3.8055837
2.5833437,-8.495825,3.8355112
2.8275523,-8.905233,4.107253
3.0801406,-9.279925,4.6938324
3.086126,-9.640253,5.345055
3.0071173,-9.813833,5.281609
3.0382419,-10.408792,3.9851487
3.3087866,-12.704831,3.6954503
3.5936968,-14.117411,4.7441106
3.9133227,-12.149377,5.140351
4.023456,-9.793482,3.751714
3.5110967,-9.49301,1.389834
2.883816,-10.111911,0.19991584
2.7246015,-10.512939,0.4285621
3.063381,-10.767922,1.0821792
3.4165258,-10.064027,1.7561469
3.3195608,-9.194932,1.9321208
3.1124623,-8.544906,2.019509
2.8862102,-8.182184,1.4389153
3.0071173,-7.9272017,0.9768343
3.2225955,-7.949947,0.90021986
3.2752678,-8.329428,1.1875241
3.1974564,-8.598776,1.5490485
3.1172507,-8.724471,1.8447324
3.0945058,-8.687361,2.1667526
2.9113493,-8.479065,2.3439236
2.7629087,-8.433576,2.4241292
2.7497406,-8.597578,2.5701754
2.717419,-8.835801,2.6312277
2.6192567,-9.26556,2.7114334
2.610877,-9.785102,2.8407204
2.6611552,-10.184934,3.052607
2.6611552,-10.521319,3.2944214
2.5019407,-11.03727,3.3662477
2.3092074,-11.426328,3.3267434
2.2948422,-11.510124,3.3734303
2.2984335,-11.055226,3.4991257
1.958457,-10.700885,3.3028011
1.6017209,-11.294646,3.1172507
1.6950948,-10.739192,3.6846764
1.5897499,-8.842984,4.047398
1.2677298,-7.192182,3.5230677
0.79846627,-6.7624226,2.432509
0.7613561,-7.693767,1.9536686
1.1563994,-8.039729,2.2278047
1.5849615,-7.797915,2.7281928
2.280477,-7.9355817,2.9520507
2.8550856,-7.93199,2.8538885
3.0789435,-7.4256167,2.5234885
3.0454245,-7.0688806,2.0614076
2.9257145,-7.0365586,1.9093759
2.8862102,-7.3753386,2.1068976
2.9652188,-7.9810715,2.505532
3.122039,-8.598776,3.0298622
3.265691,-9.029732,3.6523547
3.3973722,-9.294291,3.6332011
3.78643,-9.160215,3.1998506
3.477578,-8.797494,3.1962593
2.7497406,-8.821436,3.618836
2.1918917,-9.3182335,4.1706996
2.2182279,-9.994595,4.554969
2.5594015,-10.638636,4.703409
3.095703,-11.227609,4.9703627
3.4452562,-11.4359045,5.21936
3.4620156,-11.19409,5.163096
3.288436,-11.858481,4.772841
3.4943373,-12.899959,5.1259856
3.7672763,-12.239159,5.8681884
3.7361517,-10.700885,5.9124813
3.4225113,-9.202114,5.3235073
2.7665,-7.8386164,4.0665517
2.2230163,-8.129512,2.48159
2.3307555,-9.348161,1.733402
2.9747956,-9.797073,1.8052281
3.4344823,-9.957485,2.4779987
3.4105403,-10.292673,2.7257986
3.2381577,-10.084377,2.5151088
2.9257145,-9.463082,2.4396915
2.4349031,-9.56723,2.1068976
2.5091233,-9.627085,1.661576
2.8215668,-9.266758,1.5526398
2.9005754,-9.233239,1.4281414
2.7222073,-9.296685,1.283292
2.4983494,-8.990228,1.2521675
2.3582888,-8.524555,1.2964603
2.2768857,-8.215703,1.4879963
2.1859062,-7.9427643,1.6567876
2.1571758,-7.827842,1.8315643
2.1033063,-7.8996687,1.910573
2.0518308,-8.055291,1.9237411
2.0841527,-8.298303,2.1212628
2.1068976,-8.467094,2.2457612
2.2756886,-8.418014,2.384625
2.3463178,-8.613141,2.2948422
2.0769699,-10.04607,2.0949266
2.552219,-11.686098,2.669535
3.38181,-11.18571,3.5853171
3.8247373,-9.472659,3.821146
3.7481227,-8.0445175,3.180697
3.0801406,-8.1079645,1.9835961
2.3989902,-10.177752,1.3862427
2.4133554,-11.976994,1.757344
2.7928362,-12.029667,2.5558102
2.9053638,-10.728417,2.778471
2.7042508,-9.289502,2.4241292
2.7341783,-8.311471,2.3092074
2.7629087,-7.9212165,2.2493525
2.8431146,-7.8996687,2.5127146
3.2597055,-7.9786773,2.3582888
3.7600937,-7.8948803,1.5574282
3.8534677,-7.61835,1.6124948
3.1735144,-7.4591355,1.9500773
2.7832594,-7.773973,2.4624364
2.5594015,-7.9104424,2.8921957
2.6898856,-7.9128366,3.1759086
3.016694,-8.281544,3.1004913
3.3147724,-9.210494,3.1352072
3.4919431,-10.534488,3.4991257
3.5565867,-11.7064495,4.110844
3.5206735,-12.036849,4.4639893
3.3614593,-12.02009,4.5394063
3.040636,-12.038046,4.346673
2.717419,-12.497733,3.8594532
3.0585926,-13.354857,4.200627
3.2752678,-12.913127,4.4783545
3.5098996,-11.804611,4.313154
3.2501287,-10.073604,3.5482068
2.6156654,-8.664616,2.3415294
2.280477,-8.957906,1.0785879
2.3020248,-9.519346,0.5554548
2.1679497,-9.283517,0.78050977
2.1691468,-9.179369,1.4987702
2.2996306,-9.14585,1.0498575
1.780089,-8.750807,1.6101006
1.7860745,-8.53054,1.7561469
2.1511903,-8.532935,1.3946224
2.9101522,-8.798691,0.7685388
3.4644098,-8.920795,0.5710171
3.3291376,-8.7532015,0.6368576
2.96881,-8.613141,0.80564886
2.7940333,-8.3868885,1.0295067
2.6874914,-8.183381,1.400608
2.730587,-8.072051,1.6579847
2.705448,-7.8290396,1.6699557
2.6767175,-8.130709,1.7070658
2.6743233,-8.878897,1.7381904
2.754529,-9.570822,1.9009962
2.8694508,-10.081984,2.1655555
2.9149406,-10.116699,2.4001873
2.6300306,-10.465055,2.2278047
2.3822308,-12.0967045,1.804031
2.895787,-12.714408,2.3822308
3.3279405,-10.672154,3.3506854
3.2154129,-9.087193,3.58412
2.9364884,-8.196549,3.2620997
2.2385786,-7.141904,2.9508536
1.4616601,-7.4148426,2.610877
1.4413095,-9.015367,2.5366566
1.6400281,-9.89763,2.6048915
1.9177556,-9.43914,2.7700913
2.3906105,-8.804677,2.5941176
2.8000188,-8.409634,2.5007436
2.9819782,-8.013393,2.6180596
2.9963434,-7.657854,2.7509377
3.1759086,-7.523779,3.2237926
3.3925838,-7.395689,2.8634653
2.885013,-7.395689,3.3291376
2.7700913,-7.7308774,3.3518825
2.694674,-7.8793178,3.1603463
3.0873232,-8.171411,2.873042
3.0334535,-8.492233,3.2154129
2.8981812,-8.815451,3.7253778
3.301604,-9.101558,3.7349546
3.5529952,-9.562442,3.6104562
3.570952,-10.354922,3.6236243
3.454833,-11.110293,3.8881836
3.3614593,-11.477803,4.1156325
3.4452562,-11.397597,4.1635165
3.4512417,-11.8022175,3.9480386
3.6607344,-12.777855,4.1359835
3.8271315,-12.227188,4.2042184
3.8750155,-10.845734,4.0138793
3.8175547,-9.350554,3.5733461
3.4117374,-7.6255326,2.7976246
2.7808652,-7.357382,1.6783354
2.4492683,-8.684967,1.1947067
2.4768016,-9.680955,1.2737153
2.552219,-9.935937,1.6962919
2.72939,-9.822212,1.7657237
2.835932,-9.204509,1.7657237
2.7641058,-8.707711,1.8507179
2.6731262,-8.47308,1.1887212
3.0059202,-8.395268,0.8607155
3.1747115,-8.186973,0.7098808
3.300407,-8.082825,0.62009823
3.345897,-8.379706,0.6775591
3.1411927,-8.6813755,0.90740246
2.9628246,-8.517372,1.1061212
2.8909986,-8.374918,1.3730747
2.8119898,-8.449138,1.7154455
2.790442,-8.476671,1.9416976
2.7808652,-8.784326,2.0254946
2.765303,-9.736021,2.160767
2.7042508,-10.813412,2.3080103
2.574964,-11.11987,2.457648
2.5187001,-10.90918,2.586935
2.4480712,-10.924743,2.6144683
2.4480712,-12.2224,2.6300306
2.7030537,-12.824541,2.7269957
2.9724014,-11.071986,2.8502972
3.0538042,-9.297882,2.741361
2.8060043,-8.119935,2.6515784
2.2014685,-7.073669,2.552219
1.5406688,-6.9623384,2.4552538
1.2150574,-8.232463,2.5270798
1.1109096,-9.534908,2.6611552
1.3000516,-10.134656,2.9221232
1.7357962,-9.831789,3.004723
2.0614076,-9.059659,2.633622
2.1894975,-8.492233,2.220622
2.1739352,-8.001422,1.9991584
2.1751323,-7.560889,1.9991584
2.384625,-7.3968863,2.1057005
2.5833437,-7.37055,2.1823149
2.6479871,-7.4088573,2.1428106
2.6324248,-7.60997,2.2026656
2.6372132,-7.855376,2.2984335
2.7461493,-8.075643,2.541445
2.790442,-8.177396,2.8383262
2.8083985,-8.207323,3.1172507
2.813187,-8.349778,3.2142158
2.8622682,-8.99741,3.323152
2.9640217,-9.928755,3.502717
3.1148565,-10.693702,3.86903
3.1387985,-10.998962,3.9588125
3.1112652,-11.0935335,3.892972
3.0813377,-11.713632,3.6535518
3.2800562,-13.146562,3.9360676
3.4572272,-13.27944,4.4687777
3.5745432,-11.9746,4.423288
3.7612908,-10.657789,4.024653
3.6020765,-9.027337,3.582923
3.2130187,-7.5285673,2.9951463
2.834735,-6.9946604,2.1859062
2.658761,-7.8266454,1.4784195
2.767697,-8.992621,1.3072342
2.8658595,-10.06283,1.6783354
2.7712884,-10.754754,2.054225
2.7509377,-10.596737,2.2960393
2.7509377,-10.129868,2.1021092
2.6623523,-9.842564,1.5993267
2.60968,-9.726444,1.1671734
2.6048915,-9.543288,0.8535329
2.7018566,-9.351752,0.664391
2.7485435,-9.384073,0.6799533
2.7269957,-9.3421755,0.6344634
2.6024973,-9.053674,0.6871359
2.4791958,-8.632295,0.79128367
2.4253263,-8.3390045,1.1085154
2.3582888,-8.111555,1.3814543
2.3008277,-7.928399,1.5646108
2.2134395,-8.118738,1.6819267
2.148796,-8.619126,1.8136078
2.0805612,-9.238028,2.0566192
2.066196,-9.714474,2.207454
2.0147207,-9.9790325,2.2397757
1.8483237,-10.718841,2.1320367
1.9919758,-12.51928,2.0219033
2.64679,-13.333309,2.292448
3.3243492,-12.107478,2.802413
3.6822822,-10.576386,3.0214825
3.5302503,-8.91481,2.9532478
2.8898015,-7.32506,2.870648
2.19668,-6.609194,2.730587
1.567005,-7.0329676,2.4229321
1.1085154,-8.3150625,2.2493525
1.0522517,-9.560047,2.5390508
1.5490485,-10.093954,3.144784
2.110489,-9.849746,3.4512417
2.5091233,-9.563639,3.1483753
2.7856536,-9.263166,2.7090392
2.834735,-8.707711,2.4049757
2.823961,-8.248025,2.3666685
2.9855695,-7.9702973,2.4181437
2.9352913,-7.7823524,2.3642743
2.7521348,-7.72968,2.2852654
2.6300306,-7.9068513,2.27928
2.5450363,-7.937976,2.4899697
2.5917234,-7.9942393,2.789245
2.9005754,-8.106767,3.0011318
2.8898015,-7.9966335,3.1507695
2.7497406,-7.9224133,3.2022448
2.753332,-8.177396,3.1842883
2.8898015,-8.865729,3.4272997
2.9173348,-9.7324295,3.810372
2.942474,-10.465055,4.1826706
2.9113493,-10.813412,4.346673
2.741361,-11.013328,4.1659107
2.6084828,-11.529279,3.8774097
2.634819,-12.510901,4.092888
2.779668,-12.404359,4.547786
2.9101522,-10.802638,4.4196963
3.1651347,-9.968259,3.821146
3.2992098,-9.631873,3.228581
3.3243492,-9.238028,2.9831753
3.2190042,-8.544906,2.8766334
2.9987376,-7.764396,2.4624364
2.6036944,-7.65546,1.910573
2.4971523,-8.571242,1.5023615
2.5115175,-9.794679,1.5514427
2.1140802,-10.374076,2.1679497
2.1057005,-10.469844,2.9113493
2.5689783,-10.240001,2.5007436
2.9496565,-9.884461,2.1033063
2.7880478,-9.471462,1.733402
2.645593,-9.101558,1.472434
2.586935,-8.956709,1.3323733
2.5617957,-8.980651,1.3239936
2.552219,-8.839393,1.353921
2.5246856,-8.759187,1.340753
2.3870192,-8.710106,1.4149733
2.3127987,-8.565256,1.5897499
2.2230163,-8.310274,1.7597382
2.1332338,-8.128315,1.8411411
1.9967642,-8.037335,1.8914193
1.9237411,-8.36175,1.9572599
1.8830396,-8.833407,2.1440077
1.9524715,-9.161413,2.31639
2.1260512,-9.275137,2.4372973
2.2397757,-9.609129,2.3535004
2.1176715,-10.700885,2.1499932
2.2002714,-13.499706,2.0829554
2.8215668,-15.667656,2.4983494
3.442862,-14.0072775,3.1543608
3.58412,-11.392809,3.0945058
2.6779146,-9.011775,2.1942859
1.6795325,-6.932411,1.721431
1.3012487,-6.157887,2.0278888
1.0139444,-7.0700774,2.3403323
0.79367787,-8.708909,2.8167782
1.0594343,-10.030508,3.2237926
1.6759412,-10.383653,3.394978
2.3666685,-9.913192,2.8502972
2.4995465,-9.08001,2.3415294
2.553416,-8.49343,2.0733786
2.7377696,-8.064868,2.087744
2.8933928,-7.8733325,2.3822308
2.9281087,-7.9451585,2.8395233
2.6671407,-7.9750857,3.1471782
2.4720132,-7.9511437,3.2752678
2.1404164,-8.010999,3.217807
1.9249382,-8.050503,3.3279405
1.8064252,-7.831434,2.9879637
2.1811178,-7.4962454,2.7461493
2.2146366,-7.7428484,4.107253
2.112883,-8.057686,4.2521024
2.372654,-8.475474,4.1455603
2.5797524,-9.44752,4.4556093
2.7138276,-10.43034,4.7500963
2.7988217,-10.880449,4.7800236
2.9652188,-11.336545,4.5202527
2.8455088,-12.115858,4.3418846
2.6084828,-13.463793,4.650737
2.574964,-13.305776,5.0517654
2.858677,-11.554418,4.76925
2.9628246,-10.38485,4.1826706
2.4732103,-9.3733,3.527856
2.1631613,-8.439561,3.1136594
2.1859062,-7.5920134,2.861071
2.3535004,-7.1347213,2.4552538
2.2577322,-7.541735,1.6472107
2.2146366,-8.292317,1.174356
2.3558946,-9.022549,0.91578215
2.8622682,-9.652225,1.1001357
3.2920272,-9.860519,1.3599066
3.4320881,-9.5253315,1.555034
3.3626564,-9.263166,1.3503298
3.083732,-8.948329,1.1192893
2.8921957,-8.817844,1.0522517
2.7629087,-8.687361,1.0546459
2.597709,-8.516175,1.1336545
2.5893292,-8.615535,1.3120226
2.5965118,-8.732851,1.471237
2.622848,-8.7292595,1.7034745
2.6791117,-8.743625,1.9991584
2.658761,-8.552089,2.315193
2.5450363,-8.346188,2.5342624
2.3104045,-8.608353,2.621651
2.1775265,-9.458294,2.6719291
2.1176715,-10.374076,2.814384
2.1906946,-10.820595,2.9017725
2.2493525,-10.8469305,2.8886044
2.456451,-11.188105,2.658761
2.8095956,-12.703634,2.2732944
3.4272997,-13.971364,2.3056161
3.7193923,-12.86644,2.3463178
4.0306387,-11.077971,2.3654714
3.9875429,-9.241618,2.328361
3.2752678,-7.231686,2.2529438
2.4708161,-6.319495,2.0087352
1.9548657,-7.2843585,1.7992426
1.5394717,-8.677784,1.9081788
1.412579,-9.325416,2.4672248
1.5825673,-9.344569,3.0502129
1.7310078,-8.980651,3.3387144
1.8770541,-8.706514,3.0202854
1.9812019,-8.447941,2.5210943
2.3642743,-8.269572,2.208651
2.779668,-7.9726915,1.9752164
3.1435869,-7.787141,1.8207904
3.3961751,-7.811083,1.7477672
3.549404,-8.063671,1.8698715
3.7002387,-8.41921,2.0470424
3.5913026,-8.668207,2.4995465
3.5182793,-8.775947,2.6060886
3.2728736,-8.608353,2.7605145
3.004723,-8.556877,2.9891608
2.908955,-8.639477,3.2573113
2.7389667,-8.761581,3.3446999
2.6192567,-9.095572,3.4512417
2.5366566,-9.534908,3.6739025
2.2828712,-9.885659,4.268862
2.231396,-10.0664215,4.83509
2.6479871,-9.794679,4.367024
2.8491,-9.198523,3.4488475
2.7521348,-9.374496,2.7341783
2.7605145,-10.636241,2.837129
3.1854854,-11.449073,3.2800562
3.2597055,-10.518925,3.2620997
3.1675289,-9.539697,2.6982653
3.0705638,-9.520543,2.042254
2.9281087,-9.349358,1.6364368
2.7329812,-8.746018,1.5729905
2.7497406,-8.178593,1.5885528
2.719813,-7.855376,1.3862427
2.6623523,-7.77517,1.1001357
2.6479871,-8.063671,0.770933
2.6719291,-8.669404,0.50876784
2.858677,-9.441534,0.45729253
3.108871,-10.225636,0.51954174
3.2261868,-10.573992,0.6488287
3.132813,-10.59554,0.7086837
2.9879637,-10.461464,0.7350199
2.8742392,-10.08318,0.61770403
2.7665,-9.570822,0.4309563
2.8766334,-9.175778,0.31004912
3.0789435,-9.097966,0.3842694
3.1830912,-9.306262,0.4249708
3.277662,-9.36492,0.37828386
3.2309752,-9.308656,0.44532153
3.0322564,-9.2787285,0.748188
2.791639,-9.131485,1.0271125
2.6719291,-8.965088,1.2569559
2.5462334,-9.020155,1.6208745
2.3894134,-9.012972,2.0015526
2.2984335,-9.369708,2.327164
2.1930888,-9.884461,2.5270798
1.9656396,-9.986216,2.6767175
1.8148049,-10.085575,2.5953147
1.8447324,-10.372879,2.4540567
2.1188686,-10.931925,2.232593
2.6192567,-12.000936,2.1176715
2.9376855,-12.603078,2.0841527
3.2345665,-11.76391,2.088941
3.4751837,-10.508151,2.1021092
3.4201171,-9.241618,2.1140802
3.0573955,-8.015787,2.1428106
2.6874914,-7.419631,2.2182279
2.2960393,-7.726089,2.3199813
1.970428,-8.0924015,2.291251
1.6220716,-8.185776,2.2301989
1.4867992,-8.6574335,2.3331497
1.7310078,-9.464279,2.658761
2.0925324,-9.959879,3.0226796
2.3918076,-9.916783,2.9735985
2.7485435,-9.8042555,2.6312277
2.9101522,-9.599552,2.2852654
2.943671,-9.029732,2.0709844
2.9137435,-8.488642,1.9776106
2.9137435,-8.327033,2.112883
2.669535,-8.244433,2.31639
2.4720132,-8.276755,2.528277
2.3415294,-8.432379,2.6384103
2.2864625,-8.415619,2.8048072
2.291251,-8.25401,2.8502972
2.4229321,-8.086416,2.8526914
2.5677812,-7.9152308,2.7617116
2.695871,-7.8757267,2.7509377
2.72939,-8.070854,2.8191724
2.731784,-8.433576,2.9987376
2.7629087,-8.832211,3.0945058
2.7748797,-9.431957,3.2190042
2.681506,-9.967062,3.3494883
2.574964,-10.407595,3.2357635
2.5773582,-11.566388,3.1555579
2.814384,-12.702437,3.5350387
2.8000188,-11.678916,3.7828386
2.7090392,-10.024523,3.1914709
2.7329812,-9.800665,2.372654
2.5737667,-10.044873,1.9716251
2.6898856,-9.57561,1.9428947
2.9340942,-8.947132,1.8243817
2.9819782,-8.682572,1.6256629
2.979584,-8.553286,1.4041992
3.004723,-8.558074,1.2725182
3.0107086,-8.731653,1.2246342
2.9520507,-9.041702,1.1228806
2.835932,-9.384073,1.0319009
2.7269957,-9.896433,1.0761937
2.5605986,-10.268731,1.2413936
2.4073699,-10.123882,1.271321
2.2876596,-9.882068,1.0702082
2.36188,-9.792285,0.79607207
2.574964,-9.637859,0.676362
2.7748797,-9.378088,0.7433996
3.0609868,-9.077616,0.81881696
3.2142158,-9.015367,0.7745243
3.1615434,-9.1350765,0.80445176
3.0107086,-9.196129,0.91697925
3.083732,-9.285912,1.2066777
3.0813377,-9.461885,1.5382746
2.9724014,-9.676167,1.8088194
2.954445,-9.909601,1.8722657
2.9975405,-10.268731,1.9093759
3.086126,-10.516531,2.0410569
3.132813,-10.042479,2.1140802
3.1747115,-9.258378,2.0326772
3.193865,-8.860941,1.9141643
3.2082303,-8.866926,1.8231846
3.1507695,-8.955511,1.8866309
3.1148565,-9.166202,2.0913353
2.9508536,-9.337387,2.195483
2.6527755,-9.436746,2.3391352
2.48159,-9.53012,2.529474
2.373851,-9.239224,2.825158
2.255338,-8.644265,2.9101522
2.0841527,-8.135497,2.7210102
1.9919758,-8.111555,2.4025815
2.1511903,-8.413225,2.2182279
2.445677,-9.046491,2.2481554
2.7473464,-9.636662,2.6384103
3.0011318,-9.846154,2.9975405
3.0322564,-9.648633,3.0083144
2.9245174,-9.452309,2.9700072
2.801216,-9.239224,2.918532
2.5953147,-9.051279,2.9747956
2.4875755,-9.214086,3.2213984
2.4396915,-9.202114,3.5781345
2.3834279,-8.858546,3.691859
2.31639,-8.730456,3.6032736
2.255338,-8.947132,3.2680852
2.3451207,-9.048885,3.0190883
2.5570073,-9.151836,3.0250738
2.7976246,-9.264363,3.0538042
2.7856536,-9.181764,3.004723
2.7736826,-9.101558,2.89459
2.8299465,-9.1590185,2.7760768
2.8419175,-9.212888,2.7629087
2.8191724,-9.378088,2.8514943
2.706645,-9.512163,2.980781
2.6192567,-9.471462,3.0011318
2.5570073,-9.421184,2.9963434
2.5222914,-9.40203,2.9592333
2.540248,-9.404425,3.004723
2.3942018,-9.397242,2.9735985
2.3702598,-9.349358,3.039439
2.3463178,-9.374496,2.955642
2.3343468,-9.404425,2.8682537
2.4025815,-9.343372,2.7964275
2.4253263,-9.321824,2.813187
2.3810337,-9.370906,2.8275523
2.3080103,-9.24521,2.8167782
2.207454,-9.19134,2.7629087
2.2038627,-9.149442,2.7724855
2.2098482,-9.1350765,2.8646624
2.2122424,-9.115923,2.8311436
2.1906946,-9.103952,2.8383262
2.1547816,-9.060856,2.823961
2.124854,-9.095572,2.7688942
2.183512,-9.1350765,2.8215668
2.2864625,-9.220071,2.8862102
2.3570917,-9.190144,2.9125464
2.385822,-9.148245,2.9819782
2.4133554,-9.16261,2.9939492
2.4528596,-9.193734,3.1232362
2.4779987,-9.2069025,3.2980127
2.4947581,-9.218874,3.4272997
2.4289176,-9.227253,3.4368765
2.3451207,-9.226056,3.3566709
2.3175871,-9.2308445,3.3961751
2.3439236,-9.227253,3.4284968
2.4648306,-9.220071,3.3255463
2.5809495,-9.221268,3.2273839
2.6479871,-9.081207,3.276465
2.5701754,-8.920795,3.2309752
2.4732103,-8.917204,3.2154129
2.4001873,-8.980651,3.288436
2.4624364,-9.002198,3.3842041
2.4277205,-8.978256,3.4332852
2.4851813,-8.942344,3.3865983
2.5594015,-8.882488,3.4237084
2.6168625,-9.039309,3.466804
2.3535004,-9.062054,3.4380736
2.2361844,-9.004593,3.4991257
2.160767,-8.991425,3.5673606
2.146402,-8.966286,3.5529952
2.2182279,-8.908825,3.4356794
2.348712,-8.925584,3.309984
2.3546975,-8.871715,3.2010477
2.3786395,-8.789114,3.1854854
2.3810337,-8.847773,3.2034419
2.4349031,-8.857349,3.3207579
2.4660277,-8.784326,3.3865983
2.4911668,-8.823831,3.3770216
2.469619,-8.8884735,3.3435028
2.4911668,-8.9363575,3.335123
2.5725696,-9.066842,3.359065
2.5701754,-8.996213,3.369839
2.5390508,-8.995016,3.3135753
2.6144683,-9.109938,3.240552
2.7006595,-9.111135,3.2908301
2.802413,-9.226056,3.2716765
2.9352913,-9.507375,3.265691
2.89459,-9.653421,3.1028855
2.7353754,-9.659407,3.204639
2.4983494,-9.546879,3.4165258
2.409764,-9.324219,3.4811692
2.3654714,-9.094376,3.5063083
2.3439236,-8.943541,3.406949
2.3259668,-8.88608,3.3961751
2.2266076,-8.860941,3.3794158
2.1619642,-8.933964,3.4727895
2.1679497,-9.056067,3.6523547
2.4133554,-9.1829605,3.691859
2.565387,-9.179369,3.429694
2.682703,-9.271546,3.1064768
2.754529,-9.291897,2.8921957
2.753332,-9.25359,2.8874073
2.670732,-9.308656,2.871845
2.542642,-9.239224,2.8275523
2.4756045,-9.306262,2.823961
2.3415294,-9.294291,2.741361
2.2613235,-9.229648,2.7269957
2.2936451,-9.202114,2.7018566
2.2541409,-9.211691,2.7210102
2.3570917,-9.186552,2.7401638
2.408567,-9.184157,2.6539726
2.4193408,-9.314642,2.717419
2.4408886,-9.281123,2.731784
2.3953989,-9.299079,2.8179753
2.3319526,-9.370906,2.8419175
2.2505496,-9.331401,2.8634653
2.1894975,-9.32781,2.8874073
2.1392193,-9.340978,2.814384
2.111686,-9.352949,2.8072014
2.0937295,-9.293094,2.753332
2.1260512,-9.234436,2.6970682
2.111686,-9.210494,2.622848
2.0733786,-9.123106,2.5761611
2.0410569,-9.211691,2.5605986
2.0721815,-9.388862,2.5462334
2.1416135,-9.436746,2.6874914
2.183512,-9.435549,2.7329812
2.267309,-9.458294,2.8095956
2.2349873,-9.403227,2.895787
2.1499932,-9.235633,2.895787
2.1811178,-9.081207,2.9137435
2.171541,-9.090784,2.9735985
2.171541,-9.28232,3.0119057
2.2182279,-9.412804,2.9867666
2.2613235,-9.434352,2.885013
2.2732944,-9.443929,2.7473464
2.2637177,-9.331401,2.6755204
2.2110453,-9.284714,2.610877
2.1404164,-9.270349,2.5210943
2.0949266,-9.25359,2.4552538
2.0278888,-9.331401,2.4193408
1.9213469,-9.415198,2.3666685
1.9045875,-9.419987,2.360683
2.0027497,-9.485827,2.4313118
2.0590134,-9.61272,2.516306
2.0566192,-9.719262,2.5558102
1.9740193,-9.828198,2.6719291
1.9009962,-9.949105,2.80361
1.8315643,-9.921572,2.8562827
1.839944,-9.674969,2.823961
1.9129672,-9.520543,2.765303
1.9548657,-9.568427,2.6384103
1.8387469,-9.631873,2.6491842
1.7597382,-9.763555,2.597709
1.7345991,-9.901221,2.5953147
1.7609353,-9.925163,2.6048915
1.8064252,-9.892841,2.5246856
1.8231846,-9.7719345,2.4289176
2.0159178,-9.580399,2.2481554
2.2170308,-9.459491,2.135628
2.4109612,-9.139865,2.030283
2.5378537,-8.7292595,1.8818425
2.717419,-8.979453,1.6747441
2.9724014,-9.476251,1.7585411
3.1316159,-9.805453,2.183512
3.1292217,-9.68694,2.3582888
2.9783869,-9.123106,2.267309
2.8048072,-8.810662,2.1284454
2.815581,-8.985439,2.1428106
2.9388826,-9.241618,2.243367
3.204639,-9.303867,2.244564
3.3554738,-9.137471,2.2541409
3.3087866,-8.825027,2.2218192
3.2620997,-8.641871,2.078167
3.2704794,-8.566454,2.0099323
3.3063924,-8.604761,1.9859903
3.3734303,-8.693346,1.8722657
3.4117374,-8.880095,1.8028339
3.4332852,-9.105149,1.8004397
3.4883518,-9.323022,2.0039468
3.309984,-9.502586,2.0709844
3.1507695,-9.187749,1.9141643
3.2609026,-9.0429,1.7705121
3.1639376,-9.040505,1.8028339
3.1004913,-8.995016,2.0338743
3.0262709,-9.391256,2.1559787
2.801216,-9.674969,2.304419
2.7880478,-9.805453,2.408567
2.8107927,-10.055647,2.36188
2.682703,-10.16578,2.2768857
2.5378537,-10.104729,2.232593
2.5354595,-10.296265,2.007538
2.7150247,-11.432313,2.1212628
2.718616,-12.356475,2.566584
2.9975405,-11.750742,2.885013
3.071761,-10.497377,2.597709
2.7509377,-9.160215,2.1260512
2.3247697,-8.021772,1.5969325
1.9476831,-7.264008,1.2940661
1.780089,-7.1502833,1.3120226
1.8267759,-8.133103,1.448492
2.1894975,-9.508572,1.9261353
2.5115175,-10.225636,2.2876596
2.5881321,-10.055647,2.3092074
2.396596,-9.7803135,2.0242975
2.3463178,-9.370906,2.0231004
2.3175871,-8.707711,2.2110453
2.3630772,-8.39048,2.4157495
2.409764,-8.428787,2.6204538
2.098518,-8.593987,2.9867666
1.79206,-8.74123,3.2225955
1.4077905,-8.820239,3.3063924
1.6687586,-8.89446,3.3159695
2.0398598,-8.655039,3.1483753
2.2529438,-8.224083,3.2992098
2.4863784,-7.848193,3.679888
2.4708161,-7.526173,4.1000705
2.373851,-7.4256167,4.408922
2.2146366,-7.902063,4.5525746
2.146402,-8.738836,4.52145
2.1978772,-9.408015,4.5765166
2.2876596,-9.813833,4.759673
2.3822308,-10.141838,4.8482585
2.4528596,-10.506954,4.8422728
2.4349031,-10.930728,4.3502645
2.3918076,-11.542446,3.6619315
2.6755204,-11.394006,3.217807
2.9269116,-10.109517,2.9724014
2.8634653,-9.524135,2.7880478
2.6551697,-9.141062,2.658761
2.553416,-8.664616,2.4480712
2.2852654,-8.385692,2.0602105
1.8962077,-8.760384,1.6424223
1.8171991,-9.605537,1.3874398
1.8447324,-10.478224,1.7238252
2.0829554,-10.86369,2.2601264
2.3223755,-10.344149,2.2888567
2.2182279,-9.6845455,1.9608512
1.7669208,-9.181764,1.5741876
1.6567876,-8.663419,1.3730747
1.9644425,-8.36175,1.2198458
2.1164744,-8.127118,1.2677298
2.3343468,-7.988254,1.2413936
2.5031378,-8.209718,1.2282255
2.823961,-8.731653,1.3359646
2.823961,-8.955511,1.5023615
2.861071,-9.001001,1.7202339
2.9484594,-9.255983,1.8531121
2.918532,-9.465476,2.0039468
2.9867666,-9.479841,2.19668
3.2573113,-9.459491,2.231396
3.669114,-9.425972,2.2637177
4.000711,-9.594764,2.3343468
4.361038,-9.821015,2.3175871
4.4340615,-9.962274,2.3475149
4.259285,-9.965864,2.5498247
4.11683,-10.056845,2.6659436
4.0557775,-10.126276,2.742558
3.8666358,-10.163386,2.529474
3.8953662,-10.812215,2.4660277
4.035427,-10.335769,2.7030537
3.809175,-9.726444,2.6683378
3.6044707,-10.813412,2.566584
3.582923,-10.1382475,2.966416
3.1890767,-8.329428,3.0825348
2.6240451,-7.657854,2.9496565
1.9440918,-7.8493905,2.906561
1.2677298,-8.23366,2.908955
1.1192893,-9.003395,3.1160536
1.4257472,-10.032902,3.4979286
1.5382746,-10.491392,3.7493198
1.4532804,-10.341754,3.6966474
1.2246342,-9.888053,3.3207579
1.021127,-9.329007,2.9041667
0.9804256,-8.924387,2.6599581
0.82719666,-8.670602,2.5821466
0.9504981,-8.895657,2.5809495
1.1192893,-9.021352,2.5127146
1.2114661,-8.839393,2.5306711
1.4760253,-8.734048,2.5306711
1.5610195,-8.610746,2.5570073
1.6555905,-8.6574335,2.4480712
1.8124107,-8.540117,2.5019407
1.8136078,-8.4108305,2.7389667
1.8219875,-8.479065,2.8574798
1.8974048,-8.298303,2.8502972
2.1033063,-8.201338,3.0059202
1.6340426,-8.221688,3.25372
1.3563153,-8.209718,3.5757403
1.3239936,-8.25401,3.892972
1.2737153,-8.421604,4.10845
1.4496891,-8.641871,4.1599255
1.7836803,-8.7125,4.072537
1.9009962,-8.728063,3.9013517
1.8183962,-8.871715,3.7588966
1.8076223,-9.1590185,3.8414967
1.9213469,-9.372103,4.0222588
2.1152773,-9.673772,4.0306387
2.4025815,-10.506954,4.0701427
2.7844565,-11.36767,4.0665517
2.9580362,-11.434708,3.7325604
2.8491,-11.179725,3.2333694
2.7928362,-10.9582615,2.743755
2.6180596,-10.6637745,2.6659436
2.4983494,-9.831789,2.5797524
2.5151088,-8.956709,2.2589293
2.7150247,-8.72088,1.6543933
2.979584,-8.854955,1.258153
3.0885203,-9.0476885,1.377863
3.3506854,-9.346964,1.602918
3.4261026,-9.372103,1.8782512
3.3602622,-9.343372,2.0506337
3.204639,-9.279925,1.9871874
3.107674,-9.25359,1.7753005
3.1747115,-9.155427,1.5406688
3.2980127,-9.091981,1.6160861
3.3207579,-9.13388,1.7741034
3.3171666,-9.009381,1.7597382
3.2142158,-8.8645315,1.6915035
3.0753522,-8.670602,1.8459295
2.966416,-8.542512,2.0290859
2.9269116,-8.283937,2.136825
2.9520507,-8.261193,2.1523874
3.0190883,-8.706514,2.2158337
3.2489316,-9.1590185,2.5007436
3.2513258,-9.357738,2.731784
3.1148565,-9.57561,2.9340942
2.9460652,-9.896433,3.0873232
2.7940333,-10.195708,3.217807
2.706645,-10.362105,3.2920272
2.7736826,-10.437522,3.2465374
3.0573955,-10.477027,3.21661
3.3063924,-10.290278,3.1471782
3.1136594,-10.848128,2.8766334
3.3387144,-11.233594,3.2249897
3.2070332,-9.399636,3.5087025
3.0190883,-8.529344,3.1974564
2.9269116,-8.6095495,2.9616275
2.5067291,-7.5070195,2.8275523
2.2828712,-7.4375877,2.6312277
2.409764,-8.67539,2.6982653
2.5258827,-9.068039,3.003526
2.4983494,-9.063251,3.1771057
2.5031378,-9.227253,3.086126
2.4420857,-8.943541,2.882619
2.3786395,-8.479065,2.6635494
2.5617957,-8.303091,2.634819
2.7509377,-8.281544,2.693477
2.822764,-8.542512,2.7401638
2.777274,-8.644265,2.7712884
2.542642,-8.724471,2.7856536
2.4875755,-8.858546,2.777274
2.5438392,-8.876503,2.9388826
2.657564,-8.738836,3.0597897
2.5713725,-8.526949,3.0933087
2.4145525,-8.366538,3.180697
2.2421699,-8.263587,3.21661
2.2349873,-8.327033,3.2321723
2.3187842,-8.552089,3.3650506
2.3642743,-8.834604,3.4572272
2.349909,-9.14226,3.5170822
2.420538,-9.520543,3.6332011
2.4863784,-9.76116,3.7241807
2.5234885,-10.013748,3.6703112
2.5019407,-10.228029,3.4344823
2.5617957,-10.74398,3.1519666
3.0370448,-11.34253,3.3243492
3.2010477,-10.29387,3.6379895
3.0238767,-9.343372,3.1064768
3.2920272,-9.961076,2.4983494
3.3746274,-9.758766,2.7461493
3.0813377,-8.665813,2.837129
2.8754363,-8.173804,2.2242134
2.801216,-8.602366,1.7764976
2.7952304,-9.016563,1.970428
3.0310593,-9.293094,2.348712
3.1974564,-9.65821,2.5725696
3.122039,-9.701305,2.3774424
2.695871,-9.436746,2.256535
2.6360161,-9.312247,2.160767
2.6060886,-8.939949,2.0518308
2.6324248,-8.717288,1.9764135
2.8060043,-8.743625,1.9548657
2.8862102,-8.8884735,1.9285295
2.7473464,-8.810662,1.8686744
2.7473464,-8.797494,1.769315
2.7700913,-8.762778,1.7405846
2.8538885,-8.797494,1.7896658
2.9257145,-8.930372,1.9764135
2.8802247,-8.816648,2.0458453
2.7509377,-8.735245,2.1164744
2.7018566,-9.046491,2.2864625
2.6527755,-9.424775,2.4157495
2.3702598,-9.758766,2.7808652
2.3127987,-9.902418,2.9700072
2.3355439,-10.108319,2.6156654
2.5881321,-11.654974,2.3235726
2.7126305,-12.49055,2.5725696
2.8275523,-11.892,2.932897
2.718616,-11.166556,3.3842041
2.1978772,-10.278308,3.1136594
1.9776106,-8.809465,2.566584
2.0709844,-7.8745294,2.0027497
2.1499932,-7.5812397,1.9177556
2.1212628,-7.5213847,2.1918917
1.6196774,-7.6351094,2.847903
1.1001357,-8.307879,3.1866825
1.1420342,-8.996213,3.3028011
1.3946224,-9.4295635,3.3925838
1.7860745,-9.787497,3.4751837
2.0925324,-9.665392,3.3051953
2.2505496,-9.271546,3.0693667
2.3116016,-8.99741,2.895787
2.1440077,-8.823831,2.8742392
1.9165585,-8.683769,3.0490158
1.8100165,-8.669404,3.1675289
1.697489,-8.698134,3.3291376
1.7070658,-8.833407,3.4261026
1.7884687,-8.817844,3.4476504
1.9249382,-8.686164,3.4380736
1.9919758,-8.447941,3.4931402
2.0374656,-8.303091,3.4763808
2.0219033,-8.24563,3.5757403
1.9788077,-8.1642275,3.6128504
2.0087352,-8.415619,3.690662
2.0135236,-8.945934,3.903746
2.0398598,-9.084799,3.9612067
2.1164744,-9.306262,4.0342298
2.1703439,-9.762358,4.0976763
2.183512,-10.007763,3.9432502
2.147599,-10.480618,3.6056678
2.4121583,-11.22282,3.454833
2.457648,-11.33894,3.2309752
2.7569232,-11.7064495,3.1292217
3.1723173,-11.300632,3.083732
3.2106245,-10.075998,3.0585926
3.0190883,-8.981848,2.7700913
2.9735985,-8.239645,2.469619
3.0597897,-7.7907324,2.1380222
3.0418332,-7.6291237,2.0578163
3.1016884,-7.7919292,2.1799207
3.108871,-8.094796,2.3092074
3.1052797,-8.249222,2.5127146
2.8933928,-8.66701,2.765303
2.6503813,-9.276335,2.753332
2.3989902,-9.797073,2.7150247
2.3654714,-10.357317,2.7401638
2.541445,-10.748769,2.8048072
2.7246015,-10.7356,2.730587
2.870648,-10.401609,2.5258827
2.8862102,-9.947908,2.2301989
2.9005754,-9.489418,1.851915
2.9317,-9.139865,1.6663644
3.120842,-8.941146,1.5095441
3.2944214,-9.020155,1.459266
3.240552,-9.178172,1.4544775
3.1124623,-9.267955,1.6711528
2.802413,-9.087193,2.0242975
2.5019407,-8.929175,2.2290018
2.27928,-8.78672,2.4265234
2.0745757,-8.655039,2.5941176
1.9740193,-8.534132,2.7748797
1.9859903,-8.590396,2.871845
1.9680338,-8.598776,2.9269116
1.9728222,-8.543709,2.9173348
2.112883,-8.595184,2.882619
2.3331497,-8.74123,2.9125464
2.421735,-8.77834,2.9221232
2.5031378,-8.84059,2.967613
2.5953147,-9.058462,2.8562827
2.6767175,-10.05445,2.5785553
3.0765493,-11.81778,2.9640217
3.1531637,-11.7543335,3.3997664
3.1387985,-11.271901,3.3147724
3.2190042,-11.154586,3.0502129
3.2369606,-10.382456,2.9041667
3.2082303,-9.425972,2.8407204
3.1842883,-8.822633,2.778471
3.028665,-8.457518,2.8323407
2.7377696,-8.2276745,2.7820623
2.3774424,-8.184579,2.8323407
2.0590134,-8.350976,2.9903579
1.8662802,-8.440758,3.1268275
1.9309237,-8.698134,3.1435869
2.19668,-9.052477,3.0334535
2.4983494,-9.178172,2.846706
2.8455088,-9.321824,2.7940333
2.9376855,-9.320627,2.743755
2.9496565,-9.062054,2.6515784
2.956839,-8.883685,2.553416
2.9616275,-8.708909,2.5605986
2.920926,-8.644265,2.6443958
2.8048072,-8.7053175,2.7353754
2.6431987,-8.772355,2.9628246
2.4875755,-8.821436,3.120842
2.327164,-8.872911,3.2118216
2.315193,-8.765172,3.2800562
2.3104045,-8.63828,3.229778
2.4301147,-8.595184,3.1531637
2.5498247,-8.701726,3.1651347
2.5713725,-8.947132,3.168726
2.56419,-9.131485,3.1842883
2.5342624,-9.260772,3.1591492
2.5486276,-9.427169,3.1160536
2.542642,-9.416395,3.0071173
2.574964,-9.470264,2.9819782
2.5917234,-9.803059,2.9831753
2.6300306,-9.92636,2.920926
2.6982653,-9.727641,2.6276364
2.5893292,-9.495404,2.2697031
2.6084828,-9.544485,1.9931729
2.5354595,-9.476251,2.0602105
2.813187,-9.467871,2.1930888
2.9053638,-9.374496,2.0566192
2.847903,-9.181764,1.7034745
2.8538885,-9.038112,1.3862427
2.742558,-9.00579,1.2294226
2.6372132,-9.022549,1.1444284
2.6443958,-9.0429,1.1180922
2.6910827,-8.980651,1.079785
2.7712884,-8.89805,0.9780314
2.9053638,-8.878897,0.89543146
3.0262709,-8.870518,0.81402856
3.181894,-9.009381,0.82001406
3.229778,-9.222465,0.78170687
3.168726,-9.459491,0.90620536
3.1794999,-9.715671,1.1204864
3.0825348,-9.976639,1.3192052
2.9843724,-10.056845,1.4329298
2.979584,-10.120291,1.4784195
2.9999347,-10.171766,1.5119383
3.144784,-10.109517,1.5023615
3.3650506,-10.150218,1.4700398
3.5733461,-10.116699,1.4496891
3.655946,-10.022128,1.340753
3.7241807,-10.031705,1.3060371
3.6894648,-9.995792,1.2437878
3.6870706,-9.961076,1.2425907
3.5470097,-9.868899,1.2545617
3.4404678,-9.704897,1.270124
3.3435028,-9.623494,1.352724
3.2345665,-9.544485,1.3515269
3.1603463,-9.49301,1.4173675
3.107674,-9.398438,1.4640543
3.0226796,-9.300277,1.5370775
2.9173348,-9.251195,1.6196774
