GYR_X,GYR_Y,GYR_Z
-0.00136487,-0.04587295,3.3289514E-4
-0.0024301345,-0.039481364,-7.323693E-4
-0.00136487,-0.039481364,-0.0017976337
7.656588E-4,-0.039481364,-7.323693E-4
0.0018309233,-0.035220306,-7.323693E-4
7.656588E-4,-0.04906874,0.0056592175
7.656588E-4,-0.052264538,0.0035286883
-0.00136487,-0.035220306,0.0024634239
0.0018309233,-0.018176075,-0.0017976337
0.0018309233,-0.0032623722,-0.004993427
-2.9960563E-4,0.007390272,-0.009254484
-2.9960563E-4,0.013781859,-0.011385013
0.0018309233,0.01910818,-0.014580807
-2.9960563E-4,0.0041944785,-0.012450278
-0.003495399,0.0031292143,-0.009254484
-0.0024301345,0.018042916,-0.0039281626
-0.0045606634,0.013781859,0.0024634239
-0.009886986,-0.0064581656,0.009920275
-0.016278572,-0.028828718,0.019507654
-0.017343836,-0.016045546,0.02057292
-0.008821721,0.052131377,0.021638183
0.0018309233,0.14587465,0.038682416
0.0050267167,0.22683474,0.05679191
0.0039614523,0.26838005,0.07383614
0.0050267167,0.2790327,0.082358256
0.00822251,0.24494424,0.08555405
0.009287775,0.19274628,0.0749014
0.0050267167,0.1565273,0.04720453
0.0028961876,0.13735253,0.016311862
0.0050267167,0.11604724,-0.0028628982
0.0039614523,0.093676694,-0.0060586915
0.0028961876,0.08195878,0.0024634239
0.0028961876,0.08195878,0.01844239
0.0018309233,0.079828255,0.02802977
0.0028961876,0.0872851,0.029095035
0.0039614523,0.10006828,0.02589924
0.0028961876,0.090480894,0.019507654
0.0028961876,0.063849285,0.009920275
0.0018309233,0.03082609,0.0067244815
7.656588E-4,-0.0064581656,3.3289514E-4
0.0018309233,-0.025632925,-0.0060586915
0.0050267167,-0.012849752,-0.012450278
0.0060919807,0.0031292143,-0.015646072
0.0039614523,-0.01711081,-0.012450278
-0.00136487,-0.042677157,-0.0017976337
-0.00136487,-0.04800348,-7.323693E-4
-2.9960563E-4,-0.056525595,-0.009254484
-0.0024301345,-0.069308765,-0.022037657
-0.0066911923,-0.0682435,-0.03695136
-0.0024301345,-0.084222466,-0.03908189
-2.9960563E-4,-0.10339723,-0.03908189
-0.005625928,-0.112984605,-0.038016625
-0.0066911923,-0.12576778,-0.033755567
-0.0045606634,-0.13428989,-0.026298715
-0.0066911923,-0.12683305,-0.025233451
-0.008821721,-0.13002884,-0.023102922
-0.009886986,-0.14387728,-0.024168186
-0.008821721,-0.15452991,-0.020972393
-0.0077564567,-0.15133412,-0.022037657
-0.0066911923,-0.13748568,-0.028429244
-0.0045606634,-0.1310941,-0.022037657
-0.005625928,-0.116180405,-0.013515542
-0.005625928,-0.09167932,-0.007123956
-0.003495399,-0.07676562,-0.0028628982
-0.0024301345,-0.054395065,-0.007123956
-0.003495399,-0.03202451,-0.010319749
-2.9960563E-4,-0.028828718,-0.010319749
-2.9960563E-4,-0.025632925,-0.009254484
7.656588E-4,-0.028828718,-0.009254484
0.0018309233,-0.028828718,-0.007123956
7.656588E-4,-0.023502396,3.3289514E-4
0.0018309233,-0.020306604,0.007789746
0.0018309233,-0.018176075,0.010985539
0.0028961876,-0.0043276367,0.007789746
0.0039614523,0.0041944785,0.0056592175
0.0028961876,0.01165133,0.004593953
0.0018309233,0.0041944785,0.00885501
0.0018309233,-0.002197108,0.010985539
0.0060919807,0.013781859,0.010985539
0.0050267167,0.022303974,0.007789746
0.0039614523,0.015912388,0.0035286883
0.0039614523,0.01165133,0.0024634239
0.0039614523,0.014847123,3.3289514E-4
0.0039614523,0.01165133,-0.0039281626
0.0028961876,0.008455536,-0.009254484
0.0028961876,0.018042916,-0.011385013
0.0028961876,0.01910818,-0.011385013
7.656588E-4,0.005259743,-0.011385013
-2.9960563E-4,9.986854E-4,-0.0060586915
0.0028961876,0.007390272,-0.0017976337
0.0039614523,0.008455536,-7.323693E-4
0.0028961876,0.013781859,3.3289514E-4
7.656588E-4,0.021238709,-7.323693E-4
0.0028961876,0.013781859,-0.0028628982
0.0018309233,0.008455536,-0.0039281626
0.0018309233,0.0031292143,-0.0039281626
0.0018309233,-0.002197108,-0.0028628982
7.656588E-4,-0.00752343,-0.0060586915
-2.9960563E-4,-0.0064581656,-0.0060586915
7.656588E-4,-0.0064581656,-0.0060586915
0.0028961876,-0.0032623722,-0.004993427
0.0018309233,0.0020639498,-7.323693E-4
7.656588E-4,0.005259743,0.0024634239
-2.9960563E-4,0.0031292143,0.0035286883
-0.00136487,0.0063250074,0.0035286883
-0.00136487,9.986854E-4,0.0013981595
-0.00136487,-0.021371868,-7.323693E-4
7.656588E-4,-0.022437133,-0.0028628982
0.0028961876,-0.013915016,-0.0039281626
-2.9960563E-4,-0.01711081,-0.0028628982
-2.9960563E-4,-0.012849752,-0.0017976337
0.0018309233,-0.008588694,-0.0017976337
0.0018309233,-0.012849752,-0.0017976337
7.656588E-4,-0.016045546,-0.0017976337
7.656588E-4,-0.016045546,-0.0028628982
0.0018309233,-0.0096539585,-0.0039281626
7.656588E-4,-0.002197108,-0.0017976337
-2.9960563E-4,0.007390272,-0.007123956
-2.9960563E-4,0.0063250074,-0.016711336
0.0018309233,-0.005392901,-0.018841865
-2.9960563E-4,-0.0096539585,-0.019907128
-0.0024301345,-0.013915016,-0.020972393
-0.00136487,-0.010719223,-0.017776601
0.0018309233,-0.0043276367,-0.014580807
0.0039614523,-0.0011318434,-0.012450278
7.656588E-4,-6.657903E-5,-0.010319749
0.0018309233,0.005259743,-0.007123956
0.0050267167,0.007390272,-0.0060586915
0.0028961876,-6.657903E-5,-0.004993427
0.0028961876,-0.0064581656,-0.0060586915
0.0039614523,-0.0043276367,-0.0039281626
0.0039614523,-0.0096539585,-0.0028628982
7.656588E-4,-0.00752343,-0.0017976337
7.656588E-4,0.0041944785,-0.0017976337
0.0028961876,0.0031292143,-0.0039281626
0.0028961876,0.0031292143,-0.0017976337
7.656588E-4,0.005259743,-7.323693E-4
7.656588E-4,0.0020639498,-0.004993427
7.656588E-4,-0.005392901,-0.011385013
-2.9960563E-4,-0.01711081,-0.012450278
-2.9960563E-4,-0.033089776,-0.010319749
-0.00136487,-0.043742422,-0.0060586915
-0.00136487,-0.04587295,-0.0039281626
-0.003495399,-0.056525595,-7.323693E-4
-0.0077564567,-0.085287735,-7.323693E-4
-0.003495399,-0.08954879,-0.0060586915
0.0028961876,-0.025632925,-0.004993427
0.0028961876,-0.002197108,-0.009254484
7.656588E-4,0.018042916,-0.011385013
0.0028961876,0.035087146,-0.0028628982
0.0039614523,0.027630296,-7.323693E-4
0.0018309233,0.009520801,-0.0039281626
0.0028961876,0.0041944785,-0.007123956
0.0050267167,0.0063250074,-0.00818922
0.0018309233,0.014847123,-0.009254484
7.656588E-4,0.018042916,-0.004993427
0.0028961876,0.008455536,-0.0028628982
7.656588E-4,-0.008588694,-0.0060586915
-0.0045606634,-0.0384161,-0.0060586915
-0.0066911923,-0.07250456,-0.0039281626
-0.0045606634,-0.0682435,-0.007123956
0.0028961876,-0.011784487,-0.011385013
0.0039614523,0.034021884,-0.013515542
0.0018309233,0.044674527,-0.012450278
0.0018309233,0.03615241,-0.0039281626
0.0028961876,0.023369238,0.0024634239
0.0060919807,0.021238709,-0.0017976337
0.0050267167,0.03082609,-0.009254484
0.0028961876,0.027630296,-0.013515542
0.0028961876,0.016977651,-0.009254484
0.0018309233,0.0063250074,-0.004993427
0.0028961876,0.0031292143,-0.0039281626
0.0028961876,0.009520801,-0.004993427
0.0018309233,0.020173445,-0.004993427
0.0028961876,0.018042916,-0.004993427
0.0028961876,0.009520801,-0.007123956
0.0028961876,0.008455536,-0.0060586915
0.0018309233,0.0020639498,-0.0028628982
7.656588E-4,-0.00752343,3.3289514E-4
-0.00136487,-0.00752343,0.0024634239
0.0028961876,0.009520801,0.0035286883
0.0028961876,0.039348204,3.3289514E-4
0.0018309233,0.04041347,3.3289514E-4
0.0028961876,0.034021884,-7.323693E-4
0.0039614523,0.022303974,0.0013981595
0.0050267167,0.010586065,-0.0017976337
0.0039614523,0.007390272,-0.0017976337
0.0028961876,0.018042916,-0.0017976337
0.0039614523,0.026565032,3.3289514E-4
0.0039614523,0.027630296,-7.323693E-4
0.0028961876,0.018042916,3.3289514E-4
0.0028961876,0.013781859,0.0013981595
0.0039614523,9.986854E-4,0.004593953
0.0018309233,0.007390272,-0.0017976337
0.0018309233,0.016977651,-0.0039281626
0.0018309233,0.013781859,-0.004993427
0.0018309233,-0.0011318434,-0.0017976337
0.0018309233,-0.005392901,-7.323693E-4
0.0028961876,-6.657903E-5,-0.0017976337
0.0018309233,0.0041944785,-0.0028628982
0.0018309233,0.005259743,-0.0028628982
0.0039614523,0.007390272,-7.323693E-4
0.0039614523,0.008455536,-7.323693E-4
0.0018309233,0.0031292143,-0.0028628982
7.656588E-4,-0.002197108,-0.0028628982
0.0028961876,-0.002197108,-7.323693E-4
0.0018309233,9.986854E-4,-0.0039281626
0.0018309233,0.0020639498,-0.004993427
0.0018309233,-0.002197108,-0.004993427
0.0028961876,-6.657903E-5,-0.0028628982
0.0018309233,9.986854E-4,-0.0017976337
0.0018309233,-0.002197108,-7.323693E-4
0.0018309233,-6.657903E-5,0.0024634239
0.0028961876,0.0020639498,0.0024634239
0.0028961876,0.0063250074,-0.0017976337
0.0028961876,-6.657903E-5,-0.0060586915
7.656588E-4,-0.0032623722,-0.0060586915
0.0028961876,0.005259743,-0.004993427
0.0018309233,0.013781859,-0.0028628982
-2.9960563E-4,0.012716594,-7.323693E-4
7.656588E-4,0.013781859,-7.323693E-4
0.0018309233,0.013781859,-0.0028628982
0.0018309233,0.0031292143,-0.004993427
0.0018309233,-0.00752343,-0.0039281626
0.0028961876,-0.005392901,-0.0039281626
0.0028961876,0.0020639498,-0.0028628982
0.0018309233,0.0031292143,-0.0028628982
0.0018309233,0.0031292143,-0.0017976337
0.0028961876,9.986854E-4,-0.0017976337
0.0028961876,-0.00752343,-0.0039281626
0.0018309233,-0.008588694,-0.0039281626
0.0018309233,-0.0096539585,-0.0028628982
0.0028961876,-0.0043276367,-0.0017976337
7.656588E-4,-0.0011318434,-7.323693E-4
0.0018309233,0.0041944785,-0.0039281626
0.0028961876,9.986854E-4,-0.0028628982
0.0018309233,-0.0064581656,-0.0039281626
7.656588E-4,-0.00752343,-0.0039281626
0.0018309233,-0.0064581656,-0.0017976337
0.0018309233,-0.005392901,-0.0017976337
7.656588E-4,-0.0032623722,-7.323693E-4
0.0028961876,9.986854E-4,-0.0039281626
0.0018309233,-0.0011318434,-0.0039281626
7.656588E-4,-0.011784487,-0.004993427
-2.9960563E-4,-0.012849752,-0.007123956
7.656588E-4,-0.0096539585,-0.010319749
7.656588E-4,-0.010719223,-0.012450278
7.656588E-4,-0.008588694,-0.012450278
0.0018309233,-0.0032623722,-0.00818922
0.0018309233,0.0041944785,-0.0039281626
7.656588E-4,0.0031292143,-0.0017976337
0.0018309233,0.007390272,-7.323693E-4
0.0028961876,0.007390272,-0.0017976337
0.0018309233,0.0031292143,-0.0028628982
0.0018309233,-6.657903E-5,-0.0017976337
0.0028961876,9.986854E-4,3.3289514E-4
7.656588E-4,0.0020639498,-0.0039281626
7.656588E-4,-0.0011318434,-0.0060586915
0.0018309233,-0.011784487,-0.004993427
-2.9960563E-4,-0.022437133,-7.323693E-4
-2.9960563E-4,-0.010719223,3.3289514E-4
0.0028961876,0.016977651,0.0013981595
0.0039614523,0.03295662,0.0024634239
0.001298291,0.032590434,0.007856325
0.001298291,0.01980726,0.011052119
0.0034288198,0.0080893515,0.00892159
0.0023635554,0.003828294,0.004660532
0.001298291,0.0016977652,-6.657903E-4
0.001298291,-4.3276369E-4,-0.0017310547
0.001298291,-4.3276369E-4,3.9947417E-4
0.001298291,-0.0025632926,0.0014647386
2.330266E-4,-0.010020143,0.0014647386
2.330266E-4,-0.007889614,-0.002796319
0.001298291,-0.0068243505,-0.0049268478
2.330266E-4,-0.010020143,-0.0017310547
2.330266E-4,-0.0046938215,3.9947417E-4
0.001298291,0.0016977652,0.0035952674
-8.322378E-4,0.0080893515,0.002530003
-0.0029627667,0.005958823,3.9947417E-4
2.330266E-4,0.0027630297,0.0014647386
2.330266E-4,-0.0046938215,0.0035952674
2.330266E-4,-4.3276369E-4,0.004660532
0.001298291,0.0070240875,0.0035952674
0.001298291,0.0080893515,0.0035952674
2.330266E-4,0.011285145,0.004660532
0.001298291,0.014480938,0.004660532
0.0023635554,0.012350409,0.002530003
2.330266E-4,0.0080893515,-6.657903E-4
2.330266E-4,6.3250074E-4,3.9947417E-4
0.001298291,6.3250074E-4,3.9947417E-4
2.330266E-4,-4.3276369E-4,0.0014647386
-8.322378E-4,6.3250074E-4,3.9947417E-4
2.330266E-4,0.003828294,-6.657903E-4
2.330266E-4,0.003828294,-0.002796319
2.330266E-4,0.0016977652,-0.002796319
-4.3276369E-4,-0.002796319,-0.0041944785
-4.3276369E-4,-0.002796319,-0.005259743
6.3250074E-4,0.002530003,-0.0041944785
-4.3276369E-4,0.002530003,-0.0031292143
-0.001498028,-6.657903E-4,-0.0041944785
-4.3276369E-4,0.002530003,-9.986854E-4
-4.3276369E-4,0.0035952674,-9.986854E-4
-0.001498028,0.0035952674,-0.005259743
-4.3276369E-4,3.9947417E-4,-0.0063250074
6.3250074E-4,-0.009187906,-0.005259743
0.0016977652,-6.657903E-4,-0.0031292143
-4.3276369E-4,0.00892159,-9.986854E-4
-0.001498028,0.0131826475,-9.986854E-4
-0.001498028,0.015313176,0.0011318434
-0.001498028,0.014247912,-9.986854E-4
-0.001498028,-0.0049268478,-9.986854E-4
-0.0025632926,-0.024101608,6.657903E-5
-4.3276369E-4,-0.011318435,0.002197108
0.0027630297,0.009986854,0.0011318434
6.3250074E-4,0.017443705,-9.986854E-4
-4.3276369E-4,0.0131826475,0.0011318434
6.3250074E-4,0.0035952674,0.0064581656
0.0027630297,0.0035952674,0.0032623722
0.0016977652,0.0057257963,-0.0031292143
6.3250074E-4,0.011052119,-0.0041944785
6.3250074E-4,0.002530003,-0.0020639498
6.3250074E-4,0.0014647386,0.002197108
-4.3276369E-4,0.0035952674,0.0032623722
-4.3276369E-4,3.9947417E-4,0.0011318434
-4.3276369E-4,-0.0102531705,-0.0020639498
-0.001498028,-0.018775286,-0.0020639498
-4.3276369E-4,-0.015579492,-0.0020639498
7.656588E-4,-0.010186591,-0.0018642128
-2.9960563E-4,-0.0059255334,-0.0018642128
7.656588E-4,-0.0059255334,-0.0029294773
-2.9960563E-4,-0.013382385,-0.0018642128
-0.00136487,-0.017643442,-0.0018642128
-0.00136487,-0.019773971,-0.0018642128
-0.00136487,-0.018708706,-0.0018642128
-2.9960563E-4,-0.015512913,-7.9894834E-4
-0.00136487,-0.006990798,-7.9894834E-4
-2.9960563E-4,-0.010186591,2.663161E-4
7.656588E-4,-0.009121327,0.002396845
-0.00136487,-0.009121327,0.0045273737
-0.00136487,-0.019773971,0.005592638
-0.0045606634,-0.0219045,0.0045273737
-0.00136487,-0.010186591,0.002396845
0.0028961876,-0.010186591,0.0013315806
-0.00136487,-0.013382385,-0.0018642128
-0.0024301345,-0.014447649,-0.0018642128
0.0018309233,-0.010186591,-7.9894834E-4
-0.00136487,-0.0059255334,0.002396845
-0.00136487,-0.008056062,0.0098536955
7.656588E-4,-0.0037950044,0.007723167
7.656588E-4,-0.004860269,0.0034621095
-0.0024301345,-0.006990798,2.663161E-4
-2.9960563E-4,-0.018708706,0.0045273737
-2.9960563E-4,-0.02403503,0.005592638
-0.0024301345,-0.02403503,0.0066579026
-0.0024301345,-0.019773971,0.005592638
-0.0024301345,-0.016578177,0.0034621095
-0.0024301345,-0.01231712,0.0034621095
-0.00136487,-0.015512913,0.005592638
-0.00136487,-0.025100293,0.0066579026
-0.00136487,-0.02403503,0.007723167
-2.9960563E-4,-0.015512913,0.005592638
7.656588E-4,-0.01231712,0.0045273737
-0.00136487,-0.014447649,0.0045273737
-0.00136487,-0.025100293,0.002396845
-2.9960563E-4,-0.03468767,0.0034621095
-0.00136487,-0.030426616,0.0013315806
-0.00136487,-0.022969764,0.0013315806
-0.00136487,-0.015512913,0.0034621095
-0.0024301345,-0.01231712,0.0066579026
-2.9960563E-4,-0.009121327,0.0045273737
-2.9960563E-4,-0.009121327,0.0045273737
-0.0024301345,-0.013382385,0.0034621095
-0.00136487,-0.014447649,0.0013315806
-2.9960563E-4,-0.011251856,0.002396845
-2.9960563E-4,-0.006990798,-7.9894834E-4
-2.9960563E-4,-0.00272974,-7.9894834E-4
7.656588E-4,0.0015313176,-0.0018642128
7.656588E-4,0.002596582,-0.0039947415
-0.00136487,-0.0016644757,-0.007190535
-0.00136487,-0.006990798,-0.007190535
-2.9960563E-4,-0.0016644757,-0.005060006
-2.9960563E-4,0.005792375,-0.005060006
-2.9960563E-4,0.0100534335,-0.0061252704
-2.9960563E-4,0.019640813,-0.0061252704
7.656588E-4,0.015379755,-0.005060006
7.656588E-4,0.0068576396,-0.0029294773
-2.9960563E-4,0.011118697,-7.9894834E-4
-2.9960563E-4,0.013249226,-0.0018642128
-2.9960563E-4,0.013249226,-0.0029294773
7.656588E-4,0.012183961,-7.9894834E-4
7.656588E-4,0.015379755,-0.0018642128
0.0018309233,0.011118697,-0.0018642128
7.656588E-4,0.01644502,-7.9894834E-4
0.0018309233,0.017510284,0.005592638
0.0018309233,0.019640813,0.005592638
-2.9960563E-4,0.021771342,0.0034621095
0.0018309233,0.01644502,0.0013315806
0.0018309233,0.0100534335,2.663161E-4
7.656588E-4,0.005792375,0.0013315806
-0.00136487,0.007922905,0.0045273737
-2.9960563E-4,0.013249226,0.0045273737
-2.9960563E-4,0.021771342,0.002396845
-0.00136487,0.021771342,0.0013315806
7.656588E-4,0.012183961,0.0034621095
7.656588E-4,4.660532E-4,0.0045273737
-0.00136487,-0.004860269,0.0045273737
7.656588E-4,-0.0016644757,0.002396845
0.0028961876,0.012183961,0.002396845
-2.9960563E-4,0.008988169,0.0034621095
-2.9960563E-4,-0.0037950044,0.0034621095
7.656588E-4,-0.006990798,0.0013315806
0.0018309233,-0.006990798,2.663161E-4
-0.00136487,-0.009121327,2.663161E-4
-0.00136487,-0.0059255334,2.663161E-4
-2.9960563E-4,0.0036618465,0.0013315806
-2.9960563E-4,0.002596582,0.0013315806
-0.00136487,-0.0037950044,0.0013315806
-2.9960563E-4,-5.9921126E-4,-7.9894834E-4
0.0018309233,-5.9921126E-4,-0.0018642128
-0.00136487,-0.006990798,-7.9894834E-4
-0.0024301345,-0.01231712,0.002396845
0.0018309233,0.0015313176,0.0013315806
0.0018309233,0.005792375,-0.0018642128
-0.00136487,4.660532E-4,-0.0029294773
-0.00136487,-0.004860269,-0.0018642128
0.0018309233,-0.008056062,-0.0018642128
-2.9960563E-4,-0.009121327,-0.0029294773
-0.00136487,-0.0037950044,-0.0018642128
-0.00136487,-5.9921126E-4,-0.0029294773
-2.9960563E-4,-5.9921126E-4,-0.0029294773
-0.00136487,-0.00272974,-0.0018642128
-2.9960563E-4,-0.011251856,2.663161E-4
-2.9960563E-4,-0.010186591,0.0013315806
-0.00136487,-0.004860269,-0.0029294773
7.656588E-4,-0.008056062,-0.005060006
-2.9960563E-4,-0.013382385,-0.0029294773
-0.00136487,-0.014447649,-7.9894834E-4
-2.9960563E-4,-0.011251856,0.0034621095
7.656588E-4,-0.00272974,0.002396845
-0.0024301345,-0.008056062,-7.9894834E-4
-2.9960563E-4,-0.013382385,-0.0039947415
0.0028961876,-0.01231712,-0.005060006
-2.9960563E-4,-0.015512913,-0.0039947415
-0.00136487,-0.0059255334,-0.0029294773
-2.9960563E-4,0.015379755,0.0013315806
-0.00136487,0.01431449,0.0013315806
-0.003495399,0.012183961,-7.9894834E-4
-0.00136487,0.008988169,-0.0018642128
-2.9960563E-4,-0.0016644757,-0.0039947415
-2.9960563E-4,-0.008056062,-0.005060006
7.656588E-4,-0.006990798,-0.0039947415
7.656588E-4,-0.004860269,-0.0039947415
7.656588E-4,-0.0037950044,-0.0039947415
7.656588E-4,-5.9921126E-4,-0.0029294773
-2.9960563E-4,-5.9921126E-4,-0.0039947415
-2.9960563E-4,-0.006990798,-0.005060006
0.0018309233,-0.006990798,-0.0061252704
7.656588E-4,-0.008056062,-0.0039947415
-2.9960563E-4,-5.9921126E-4,-7.9894834E-4
7.656588E-4,0.005792375,2.663161E-4
-2.9960563E-4,0.0015313176,-0.0029294773
-2.9960563E-4,-5.9921126E-4,-0.0039947415
-2.9960563E-4,-0.004860269,-0.0039947415
-0.00136487,-0.014447649,-0.0029294773
-0.00136487,-0.009121327,-0.005060006
-2.9960563E-4,-0.006990798,-0.0039947415
-2.9960563E-4,-0.009121327,-0.0029294773
7.656588E-4,-0.008056062,-0.0018642128
-2.9960563E-4,-0.01231712,-7.9894834E-4
-2.9960563E-4,-0.013382385,-0.0029294773
-2.9960563E-4,-0.009121327,-0.0029294773
-0.00136487,-0.01231712,-0.0029294773
-0.00136487,-0.013382385,-0.0018642128
-0.00136487,-0.008056062,-0.0029294773
-2.9960563E-4,-0.010186591,-0.0018642128
-2.9960563E-4,-0.0059255334,-0.0029294773
-0.0024301345,-0.004860269,-0.0039947415
7.656588E-4,-0.006990798,-0.0029294773
-2.9960563E-4,-0.006990798,-0.0039947415
-2.9960563E-4,-0.006990798,-0.0039947415
7.656588E-4,-0.006990798,-0.0039947415
7.656588E-4,-0.004860269,-0.0029294773
-0.00136487,-0.00272974,-0.0018642128
-2.9960563E-4,0.002596582,-0.005060006
7.656588E-4,4.660532E-4,-0.005060006
7.656588E-4,-0.004860269,-0.0039947415
7.656588E-4,-0.00272974,0.0034621095
-9.986854E-5,0.016744625,0.009321064
-0.0022303974,0.014614096,0.010386328
-0.0032956619,0.009287775,0.005060006
-0.0022303974,0.00822251,0.0018642128
-9.986854E-5,-0.0024301345,-0.0013315806
9.653959E-4,-0.0077564567,-0.0034621095
-9.986854E-5,-0.005625928,-0.0013315806
-9.986854E-5,-0.00136487,0.0029294773
-9.986854E-5,0.0018309233,0.0039947415
9.653959E-4,0.016744625,-0.0013315806
9.653959E-4,0.014614096,-0.0066579026
-9.986854E-5,0.014614096,-0.015180018
9.653959E-4,0.026332006,-0.016245283
0.0020306604,0.03165833,-0.005592638
0.0020306604,0.018875154,0.016777914
0.0041611893,0.030593064,0.026365295
0.0052264538,0.07639943,0.02530003
0.0052264538,0.1072921,0.01784318
0.0052264538,0.10622684,0.011451593
0.0052264538,0.08918261,0.0061252704
0.0052264538,0.06681205,0.0018642128
0.0052264538,0.047637295,-2.663161E-4
0.008422247,0.03698465,-0.0034621095
0.0073569827,0.04231097,-0.005592638
0.006291718,0.043376237,-0.0013315806
0.006291718,0.050833087,0.0039947415
0.008422247,0.06042047,0.008255799
0.009487512,0.07213838,0.011451593
0.0116180405,0.100900516,0.008255799
0.015879098,0.09344366,0.012516857
0.014813834,0.08066049,0.022104237
0.0116180405,0.067877315,0.035952676
0.0116180405,0.067877315,0.03914847
0.012683305,0.06042047,0.03488741
0.012683305,0.049767822,0.022104237
0.0116180405,0.03485412,0.009321064
0.014813834,-0.0024301345,0.0018642128
0.015879098,-0.048236504,-0.013049489
0.014813834,-0.09084708,-0.024767399
0.014813834,-0.10149973,-0.025832662
0.016944362,-0.07486811,-0.019441076
0.015879098,-0.08658602,-0.0045273737
0.0116180405,-0.080194436,7.9894834E-4
0.009487512,-0.055693354,0.011451593
0.013748569,-0.04717124,0.02530003
0.01907489,-0.0141480435,0.019973708
0.020140156,0.024201477,0.010386328
0.018009627,0.018875154,0.009321064
0.012683305,-0.015213308,0.03169162
0.0052264538,-0.043975446,0.04660532
0.0041611893,-0.04717124,0.06364955
0.0052264538,0.0039614523,0.08069378
0.0052264538,0.062551,0.06578008
-0.0032956619,0.10516157,0.027430559
-0.0118177775,0.10196578,0.013582122
-0.0075567197,0.09024787,0.012516857
0.0020306604,0.07107311,0.012516857
0.0020306604,0.038049914,0.010386328
-0.0032956619,-0.0024301345,-0.0034621095
-0.0043609263,0.018875154,-0.01091896
0.0052264538,0.081725754,-0.0098536955
0.0073569827,0.1285974,-0.0098536955
9.653959E-4,0.1371195,-0.0066579026
0.0020306604,0.11581422,0.0029294773
0.0030959249,0.07426891,0.016777914
-0.0064914552,0.10196578,0.028495824
-0.024600951,0.16907744,0.050866377
-0.029927272,0.18931746,0.05725796
-0.038449388,0.17759955,0.051931642
-0.05868941,0.1765343,0.052996904
-0.09384314,0.15096794,0.07323693
-0.15669374,0.07639943,0.09134643
-0.23765384,0.07852996,0.05406217
-0.27493808,0.22447118,0.013582122
-0.26748124,0.4098272,-0.033289514
-0.25789386,0.5302021,-0.10466223
-0.3015697,0.7017096,-0.1984055
-0.27600336,0.3981093,-0.3273025
-0.21315275,-0.14197977,-0.29534456
-0.18012956,-0.32733577,-0.26977822
-0.14817162,-0.16541559,-0.39121836
-0.07466838,0.07852996,-0.4828311
0.044641238,0.081725754,-0.44661212
0.17460349,-0.34118423,-0.40719733
0.3450458,-1.214701,-0.3954794
0.5133576,-1.9603862,-0.4050668
0.6305367,-2.09674,-0.46152583
0.692322,-1.5875436,-0.49241847
0.7029747,-0.7023089,-0.44767737
0.6486462,0.3469766,-0.40719733
0.5591639,1.0564427,-0.40613207
0.46329015,1.2386029,-0.40613207
0.37061214,0.9200889,-0.3997405
0.3003047,0.29051757,-0.40080574
0.2502373,-0.23891884,-0.3954794
0.22680146,-0.509496,-0.3720436
0.22999725,-0.5851298,-0.345412
0.23958462,-0.63413197,-0.3187804
0.24278042,-0.6927215,-0.29214877
0.23106252,-0.7012436,-0.27830034
0.21614881,-0.6522414,-0.2580603
0.19164772,-0.4679507,-0.22716764
0.17992982,-0.20269984,-0.19307917
0.17353824,-0.059954412,-0.16751283
0.1895172,-0.053562827,-0.15259913
0.21295302,-0.10149973,-0.14088123
0.22573619,-0.13026187,-0.107858025
0.2406499,-0.2367883,-0.059921123
0.25449833,-0.31987894,-0.027963191
0.27260783,-0.36035898,-0.013049489
0.28752154,-0.34651056,-0.007723167
0.3003047,-0.26235464,-0.007723167
0.29923943,-0.18991667,-0.0066579026
0.29071733,-0.36035898,-0.008788432
0.29071733,-0.64265406,0.0061252704
0.29604363,-0.8748817,0.0061252704
0.30456576,-0.83440167,-0.0045273737
0.30456576,-0.61069614,-0.011984224
0.29391313,-0.35822845,-0.014114753
0.27580363,-0.20056932,-0.013049489
0.25343308,-0.15263242,-0.029028455
0.23851937,-0.19737352,-0.054594804
0.2108225,-0.25063676,-0.063116916
0.16714665,-0.2431799,-0.0727043
0.13625398,-0.16328506,-0.08335694
0.12027501,-0.03438807,-0.09081379
0.122405544,0.04018044,-0.09720538
0.13305819,0.015679361,-0.081226416
0.14903715,-0.04930177,-0.06631271
0.16182032,-0.07167232,-0.06098639
0.16501611,-0.023735423,-0.050333746
0.15755926,0.048702557,-0.031158984
0.14797188,0.029527798,-0.0066579026
0.14051503,-0.14943662,0.018908443
0.12773186,-0.3933822,0.0231695
0.123470806,-0.54784554,0.024234766
0.12027501,-0.53825814,0.04660532
0.10216552,-0.4349275,0.06897587
0.07233811,-0.24531043,0.09560748
0.042510707,-0.03012701,0.10945592
0.013748569,0.15949006,0.098803274
-0.012883042,0.2894523,0.09773801
-0.038449388,0.17866482,0.09347695
-0.06614626,-0.023735423,0.09667274
-0.087451555,-0.1441103,0.09986854
-0.09703893,-0.054628093,0.10839066
-0.1098221,0.14244583,0.12969594
-0.13325793,0.33099765,0.15419702
-0.14497583,0.3554987,0.17230652
-0.14071478,0.24364595,0.18402442
-0.12047475,0.09344366,0.17869811
-0.101299986,-0.0066911923,0.17124125
-0.0949084,-0.029061746,0.1818939
-0.08105996,-0.04930177,0.19361182
-0.07253785,-0.07593338,0.20959078
-0.07466838,-0.1260008,0.23089607
-0.09277787,-0.16754612,0.25646242
-0.12047475,-0.17606823,0.2894856
-0.14391057,-0.14197977,0.3139867
-0.18012956,-0.14304504,0.33742252
-0.193978,-0.26448518,0.35446674
-0.18012956,-0.43066645,0.36192358
-0.16202006,-0.55956346,0.3523362
-0.16947691,-0.5989782,0.38003308
-0.19504327,-0.4796686,0.43223104
-0.21315275,-0.2793989,0.44075316
-0.21315275,-0.08232497,0.4215784
-0.19184746,-0.00136487,0.37151098
-0.18865167,-0.12706608,0.2926814
-0.2025001,-0.35183686,0.21598236
-0.21741381,-0.4104264,0.1488707
-0.26428545,-0.32307473,0.114782244
-0.31115708,-0.13026187,0.12863068
-0.32500553,0.155229,0.07323693
-0.3463108,0.58559585,-0.008788432
-0.39318246,1.0021142,-0.021571605
-0.44324988,1.2524514,-0.046072688
-0.45070672,1.3291504,-0.11318435
-0.44644567,1.2801483,-0.16857809
-0.48266464,1.226885,-0.2314287
-0.5529721,1.3280852,-0.3177151
-0.59132165,1.4814832,-0.36991307
-0.5700163,1.5027885,-0.40719733
-0.5540374,1.2854745,-0.44341633
-0.57534266,1.0042448,-0.44767737
-0.60943115,0.74112445,-0.4135889
-0.6041048,0.6995791,-0.36884782
-0.57534266,0.7954529,-0.28682244
-0.53060156,0.8902615,-0.17816548
-0.47307727,0.8700214,-0.10359696
-0.37294242,0.6836001,-0.031158984
-0.27067703,0.5174189,0.043409526
-0.21528329,0.38426086,0.12010857
-0.17799903,0.26495123,0.19574234
-0.117278956,0.23086278,0.21811289
-0.07679891,0.2777344,0.21598236
-0.040579915,0.29477865,0.23089607
-0.005426191,0.24258068,0.24900556
0.056359146,0.021005683,0.2681803
0.11494869,-0.21548302,0.25220135
0.14264557,-0.3113568,0.24261397
0.17034245,-0.24850622,0.22237395
0.16182032,-0.064215474,0.14674017
0.14903715,0.09770472,0.11158645
0.16501611,0.1072921,0.09667274
0.2108225,0.055094145,0.08175904
0.25769413,0.09024787,0.09560748
0.3248058,0.1850564,0.13608754
0.42067957,0.13392371,0.17656758
0.50163966,-0.0066911923,0.17656758
0.52827126,-0.033322804,0.14247912
0.47500807,0.068942584,0.12117383
0.27686888,0.15309848,0.06471481
0.1117529,0.26388597,-0.03542004
0.04783703,0.24684174,0.007190535
0.015879098,0.0039614523,0.06364955
-0.017144099,-0.2996389,0.083889574
-0.04377571,-0.4796686,0.08815063
-0.060819943,-0.52014863,0.10519486
-0.07679891,-0.49564758,0.14567491
-0.084255755,-0.4466454,0.17763284
-0.0799947,-0.37633795,0.19467707
-0.07573364,-0.28259468,0.19148128
-0.06401573,-0.15795875,0.17443705
-0.035253596,-0.03438807,0.100933805
-0.013948306,0.009287775,0.022104237
-0.027796743,-0.025865952,-0.018375812
-0.050167296,-0.124935545,-0.016245283
-0.061885204,-0.2793989,0.070041135
-0.052297827,-0.35929373,0.18935075
-0.036318857,-0.27833363,0.27350664
-0.04164518,-0.11534816,0.3107909
-0.05549362,-0.04930177,0.28415927
-0.056558885,-0.10256499,0.22663501
-0.04910203,-0.11215237,0.1605886
-0.040579915,-0.005625928,0.09986854
-0.04590624,0.057224672,0.05725796
-0.056558885,0.018875154,0.010386328
-0.035253596,-0.02267016,-0.04181163
-0.0032956619,0.03485412,-0.036485307
0.01907489,0.04657203,0.008255799
0.016944362,-0.03971439,-0.005592638
-0.005426191,-0.14624083,0.0039947415
-0.024600951,-0.22080934,0.011451593
-0.021405157,-0.20483038,0.0029294773
-0.012883042,-0.12813133,0.018908443
-0.0064914552,-0.10682605,0.016777914
-0.008621984,-0.1291966,0.0018642128
-0.012883042,-0.122805014,0.009321064
-0.0118177775,-0.08978182,0.03169162
-0.001165133,-0.04930177,0.043409526
0.006291718,-0.031192275,0.06151902
0.006291718,-0.046105977,0.07749799
0.0020306604,-0.016278572,0.0743022
9.653959E-4,0.07426891,0.070041135
0.0030959249,0.12327107,0.06897587
0.0052264538,0.098769985,0.04980111
0.0020306604,0.062551,0.03275688
-0.0022303974,0.09344366,0.019973708
-9.986854E-5,0.12753212,0.0061252704
0.0052264538,0.085986815,-0.01091896
0.0041611893,0.03165833,-0.03222425
-0.0032956619,0.00822251,-0.04181163
-0.005426191,-0.0066911923,-0.04181163
-0.0032956619,-0.043975446,-0.046072688
-0.001165133,-0.066346,-0.05352954
-0.0032956619,-0.066346,-0.048203215
-0.005426191,-0.046105977,-0.03542004
-0.0032956619,-0.04184492,-0.019441076
-0.001165133,-0.02267016,-0.016245283
-0.001165133,0.0028961876,7.9894834E-4
-9.986854E-5,0.012483568,0.03169162
-9.986854E-5,0.029527798,0.050866377
0.0020306604,0.068942584,0.052996904
0.0041611893,0.10196578,0.051931642
0.0052264538,0.09770472,0.059388492
0.0030959249,0.08279102,0.072171666
9.653959E-4,0.08918261,0.07536746
-0.001165133,0.099835254,0.06684534
-9.986854E-5,0.0774647,0.05725796
-9.986854E-5,0.043376237,0.043409526
-9.986854E-5,0.024201477,0.029561087
9.653959E-4,0.016744625,0.013582122
9.653959E-4,-0.012017515,-0.0013315806
9.653959E-4,-0.064215474,-0.011984224
-0.0022303974,-0.091912344,-0.019441076
-0.0032956619,-0.10043446,-0.026897926
-9.986854E-5,-0.08658602,-0.03222425
9.653959E-4,-0.07486811,-0.03009372
-0.0022303974,-0.078063905,-0.038615834
-0.005426191,-0.079129174,-0.052464273
-0.005426191,-0.081259705,-0.055660065
-0.0032956619,-0.07699864,-0.055660065
-0.0064914552,-0.09510814,-0.052464273
-0.009687249,-0.11854396,-0.050333746
-0.0118177775,-0.108956575,-0.046072688
-0.008621984,-0.0993692,-0.036485307
-0.0064914552,-0.0993692,-0.034354776
-0.0064914552,-0.078063905,-0.034354776
-0.0075567197,-0.052497562,-0.029028455
-0.0043609263,-0.04291018,-0.018375812
-0.0022303974,-0.03438807,-0.007723167
-9.986854E-5,-0.02053963,0.0061252704
-0.001165133,-0.019474365,0.013582122
-9.986854E-5,-0.026931217,0.018908443
-9.986854E-5,-0.018409101,0.018908443
-0.0022303974,-0.023735423,0.013582122
-0.001165133,-0.051432297,0.007190535
-0.0022303974,-0.08232497,0.0061252704
-0.0032956619,-0.08765129,0.008255799
9.653959E-4,-0.07167232,0.018908443
0.0041611893,-0.04930177,0.029561087
0.0020306604,-0.01095225,0.024234766
-0.0032956619,0.00822251,0.021038972
-0.0043609263,0.012483568,0.016777914
-0.0022303974,0.01780989,0.009321064
-0.0032956619,0.033788856,-0.0045273737
-0.0043609263,0.03165833,-0.016245283
-0.005426191,0.02526674,-0.024767399
-0.0064914552,0.026332006,-0.03222425
-0.0075567197,0.0060919807,-0.034354776
-0.008621984,-0.02267016,-0.031158984
-0.0075567197,-0.03438807,-0.02263687
-0.0043609263,-0.023735423,-0.015180018
-0.0032956619,-0.016278572,-0.0098536955
-0.0032956619,-0.0066911923,-0.002396845
-0.0022303974,0.009287775,0.012516857
-0.0022303974,0.016744625,0.022104237
-0.005426191,0.026332006,0.013582122
-0.0064914552,0.02526674,-0.0045273737
-0.0032956619,0.012483568,-0.020506341
-0.0022303974,0.013548832,-0.031158984
-0.0022303974,0.0018309233,-0.037550572
-0.0032956619,-0.029061746,-0.040746365
-0.001165133,-0.057823885,-0.033289514
0.0030959249,-0.066346,-0.021571605
0.0020306604,-0.04717124,-0.015180018
-9.986854E-5,-0.016278572,-0.0098536955
0.0030959249,0.03485412,0.0061252704
0.0116180405,0.08066049,0.03914847
0.015879098,0.07426891,0.06684534
0.010552776,0.02526674,0.07749799
0.014813834,-0.03012701,0.070041135
0.024401214,0.012483568,0.06151902
0.04038018,0.03698465,0.08175904
0.04783703,-0.09830394,0.1041296
0.044641238,-0.28579047,0.115847506
0.044641238,-0.3656853,0.13928333
0.08405602,-0.31881368,0.21704763
0.12453607,-0.16115454,0.25326663
0.13731924,-0.16008927,0.2777677
0.10216552,-0.2698115,0.3043993
0.04783703,-0.26022413,0.30546457
0.006291718,-0.09723867,0.23196132
-0.012883042,0.045506764,0.22556974
0.0073569827,0.038049914,0.24687503
0.018009627,0.0060919807,0.18295917
0.023335949,-0.0993692,0.14780544
0.006291718,-0.15689348,0.06258429
-0.054428354,-0.16008927,0.01784318
-0.0949084,-0.051432297,-0.021571605
-0.06295047,0.03165833,-0.04287689
-0.0075567197,0.028462535,-0.050333746
0.015879098,0.035919383,-0.07163903
0.013748569,0.030593064,-0.04713795
0.018009627,0.03272359,-0.03009372
0.025466477,0.10835736,-0.043942157
0.04038018,0.15203321,-0.057790596
0.051032823,0.12114054,-0.051399007
0.037184387,0.12007528,-0.057790596
0.027597006,0.15735953,-0.063116916
0.029727535,0.1850564,-0.052464273
0.025466477,0.06574679,-0.0034621095
0.025466477,-0.02267016,-0.0045273737
0.03292333,-0.01095225,-0.0013315806
0.03824965,0.021005683,-0.005592638
0.02120542,0.055094145,-0.017310547
0.0116180405,0.10516157,-0.033289514
0.016944362,0.1254016,-0.03222425
0.013748569,0.16162059,-0.007723167
0.006291718,0.1850564,0.011451593
0.0020306604,0.20423116,0.02530003
0.0030959249,0.21168801,0.03488741
9.653959E-4,0.2361891,0.045540053
-0.0075567197,0.23512383,0.043409526
-0.016078835,0.22127539,0.04980111
-0.021405157,0.20423116,0.060453758
-0.005426191,0.1285974,0.06471481
0.0073569827,0.08066049,0.051931642
0.006291718,0.07213838,0.026365295
-9.986854E-5,0.11155316,0.0061252704
-0.0075567197,0.13179319,0.035952676
-0.012883042,0.08492155,0.048735846
-0.0032956619,0.057224672,0.067910604
-0.001165133,0.10942263,0.06364955
-0.0075567197,0.14351109,0.06684534
-0.013948306,0.14244583,0.06364955
-0.010752513,0.13285846,0.059388492
-0.010752513,0.11581422,0.052996904
-0.0043609263,0.07426891,0.060453758
0.0020306604,0.009287775,0.071106404
0.0020306604,-0.03012701,0.07323693
0.0073569827,-0.005625928,0.0743022
0.0073569827,0.052963614,0.07643272
-9.986854E-5,0.070007846,0.06258429
-0.0043609263,0.06574679,0.030626353
0.0030959249,0.06042047,-2.663161E-4
-0.0043609263,0.06361626,-0.016245283
-0.0022303974,0.0039614523,-0.015180018
0.0041611893,-0.04504071,-0.024767399
0.0116180405,-0.08871655,-0.037550572
0.009487512,-0.11641343,-0.037550572
0.0073569827,-0.10576078,-0.027963191
0.0073569827,-0.065280735,-0.021571605
0.010552776,-0.052497562,-0.026897926
0.008422247,-0.067411266,-0.017310547
0.0030959249,-0.08339023,-0.016245283
0.0020306604,-0.0993692,-0.017310547
0.0041611893,-0.09723867,-0.018375812
0.008422247,-0.0993692,-0.029028455
0.0030959249,-0.108956575,-0.03222425
0.0020306604,-0.10256499,-0.037550572
0.0041611893,-0.08232497,-0.048203215
0.0030959249,-0.06847653,-0.057790596
9.653959E-4,-0.07273759,-0.059921123
9.653959E-4,-0.08232497,-0.050333746
0.0052264538,-0.063150205,-0.04181163
0.0073569827,-0.033322804,-0.037550572
0.0030959249,-0.03012701,-0.034354776
0.0030959249,-0.02799648,-0.025832662
0.0030959249,-0.01095225,-0.015180018
0.0030959249,0.00822251,-0.01091896
0.0030959249,0.01780989,-0.0098536955
0.0020306604,0.023136212,-0.002396845
0.0030959249,0.03272359,-0.002396845
0.0041611893,0.04657203,-0.0034621095
0.0020306604,0.030593064,-0.0034621095
-9.986854E-5,0.0060919807,-0.002396845
9.653959E-4,-2.9960563E-4,-0.002396845
0.0030959249,0.0050267167,-2.663161E-4
0.0041611893,0.015679361,-0.002396845
0.0052264538,0.02739727,-0.002396845
0.006291718,0.029527798,-0.002396845
0.0041611893,0.03272359,-0.0013315806
0.0052264538,0.02526674,-0.0013315806
0.0052264538,0.014614096,-0.0013315806
0.0041611893,0.0050267167,0.0018642128
0.006291718,0.00822251,0.0039947415
0.0030959249,0.023136212,-0.0013315806
-9.986854E-5,0.022070948,-0.01091896
-9.986854E-5,0.007157245,-0.013049489
9.653959E-4,-0.012017515,-0.011984224
0.0030959249,-0.018409101,-0.01091896
0.0020306604,-0.0024301345,-0.0098536955
-0.0022303974,0.0114183035,-0.01091896
-0.001165133,0.0060919807,-0.002396845
-0.001165133,0.00822251,0.012516857
-0.0022303974,0.01780989,0.013582122
-0.0022303974,0.022070948,0.009321064
-0.0022303974,0.014614096,-0.0013315806
-0.001165133,0.0050267167,-0.0098536955
-9.986854E-5,-0.008821721,-0.01091896
9.653959E-4,-0.015213308,-0.007723167
9.653959E-4,-0.008821721,0.0029294773
0.0020306604,0.0039614523,0.01571265
0.0041611893,0.035919383,0.030626353
9.653959E-4,0.057224672,0.029561087
-0.0022303974,0.049767822,0.027430559
-0.0032956619,0.02526674,0.0231695
-9.986854E-5,0.0028961876,0.018908443
0.0020306604,-0.013082779,0.018908443
-9.986854E-5,-0.016278572,0.022104237
-0.0022303974,-0.00136487,0.024234766
-0.0022303974,0.012483568,0.029561087
-0.0022303974,0.022070948,0.026365295
-0.001165133,0.02526674,0.021038972
-0.001165133,0.01994042,0.0061252704
9.653959E-4,-0.005625928,-0.0066579026
9.653959E-4,-0.03758386,-0.002396845
0.0020306604,-0.046105977,7.9894834E-4
0.0020306604,-0.03758386,0.0061252704
-0.0022303974,-0.02267016,0.013582122
-0.001165133,-2.9960563E-4,0.010386328
-0.001165133,0.033788856,0.010386328
-0.001165133,0.035919383,0.012516857
-0.001165133,0.021005683,0.0039947415
-9.986854E-5,0.018875154,-0.017310547
-9.986854E-5,0.014614096,-0.038615834
-0.0022303974,-0.008821721,-0.050333746
-0.0032956619,-0.03225754,-0.050333746
-0.001165133,-0.051432297,-0.0396811
0.0030959249,-0.081259705,-0.021571605
-9.986854E-5,-0.10256499,-0.01091896
0.0020306604,-0.1142829,-0.0013315806
0.0030959249,-0.10256499,0.0039947415
0.0020306604,-0.094042875,-2.663161E-4
0.0020306604,-0.08871655,-0.0066579026
9.653959E-4,-0.066346,-0.007723167
0.0020306604,-0.043975446,-0.01091896
-9.986854E-5,-0.02799648,-0.015180018
-0.001165133,-0.025865952,-0.016245283
-9.986854E-5,-0.015213308,-0.017310547
-0.001165133,7.656588E-4,-0.020506341
-0.0032956619,-0.00136487,-0.020506341
-0.001165133,-0.016278572,-0.020506341
-9.986854E-5,-0.013082779,-0.014114753
9.653959E-4,-2.9960563E-4,-0.013049489
9.653959E-4,0.0028961876,-0.008788432
9.653959E-4,0.0050267167,7.9894834E-4
0.0020306604,0.0060919807,0.010386328
0.0020306604,7.656588E-4,0.01784318
0.0030959249,-2.9960563E-4,0.011451593
9.653959E-4,-0.008821721,7.9894834E-4
-9.986854E-5,-0.031192275,-0.0066579026
-9.986854E-5,-0.053562827,-0.008788432
9.653959E-4,-0.062084943,-0.007723167
0.0020306604,-0.059954412,-0.013049489
0.0020306604,-0.055693354,-0.019441076
-9.986854E-5,-0.053562827,-0.023702133
-0.0022303974,-0.051432297,-0.025832662
-0.0043609263,-0.04504071,-0.031158984
-0.0032956619,-0.03971439,-0.03542004
-0.0064914552,-0.04504071,-0.034354776
-0.005426191,-0.059954412,-0.033289514
-0.0043609263,-0.062084943,-0.031158984
-0.0032956619,-0.036518596,-0.025832662
-0.0032956619,-0.025865952,-0.018375812
-0.0022303974,-0.026931217,-0.01091896
-9.986854E-5,-0.03225754,0.0061252704
0.0020306604,-0.031192275,0.019973708
0.0020306604,-0.018409101,0.0231695
0.0041611893,0.0039614523,0.021038972
0.0041611893,0.016744625,0.018908443
0.0020306604,0.01780989,0.019973708
0.0030959249,0.0114183035,0.021038972
0.0052264538,0.012483568,0.019973708
0.0020306604,0.012483568,0.01571265
9.653959E-4,0.0114183035,0.011451593
0.0020306604,0.010353039,0.009321064
0.0020306604,0.009287775,0.0039947415
-9.986854E-5,0.0028961876,-2.663161E-4
-9.986854E-5,-0.0066911923,-0.0045273737
9.653959E-4,-0.008821721,-0.008788432
-9.986854E-5,-0.0141480435,-0.007723167
-0.001165133,-0.023735423,-0.008788432
-9.986854E-5,-0.03225754,-0.0066579026
-9.986854E-5,-0.040779654,-0.005592638
-0.001165133,-0.04504071,-0.0098536955
-0.001165133,-0.048236504,-0.016245283
-9.986854E-5,-0.04717124,-0.025832662
-0.001165133,-0.04717124,-0.031158984
-0.0043609263,-0.053562827,-0.036485307
-0.0022303974,-0.057823885,-0.03222425
-0.001165133,-0.04930177,-0.024767399
-0.001165133,-0.03758386,-0.014114753
9.653959E-4,-0.018409101,-0.0045273737
0.0020306604,0.0050267167,-2.663161E-4
9.653959E-4,0.014614096,7.9894834E-4
0.0020306604,0.0114183035,7.9894834E-4
0.0030959249,0.0028961876,-0.002396845
-9.986854E-5,-0.008821721,-0.002396845
-0.001165133,-0.0045606634,-0.0013315806
-0.001165133,-2.9960563E-4,-2.663161E-4
-0.001165133,0.010353039,0.0039947415
-9.986854E-5,0.026332006,0.005060006
-0.001165133,0.038049914,0.007190535
-0.001165133,0.028462535,0.007190535
0.0030959249,0.013548832,0.012516857
0.0041611893,0.007157245,0.022104237
0.0041611893,0.00822251,0.022104237
0.0020306604,0.014614096,0.013582122
-0.001165133,0.00822251,7.9894834E-4
-0.001165133,-0.0066911923,-0.01091896
-0.0022303974,-0.021604894,-0.017310547
-0.0022303974,-0.023735423,-0.019441076
-0.001165133,-0.012017515,-0.017310547
-0.0022303974,-2.9960563E-4,-0.013049489
-0.001165133,-0.00136487,-0.0098536955
-0.001165133,-0.0077564567,-0.005592638
-0.001165133,-0.008821721,-0.0045273737
-0.001165133,-0.0066911923,-0.0034621095
-0.001165133,-0.0024301345,-0.0034621095
-9.986854E-5,-0.0066911923,-0.0034621095
-9.986854E-5,-0.0141480435,-0.0013315806
9.653959E-4,-0.0141480435,-0.002396845
-0.001165133,-0.015213308,-0.0034621095
-0.001165133,-0.008821721,-0.0045273737
-9.986854E-5,0.0050267167,-0.005592638
-0.001165133,0.0039614523,-0.0013315806
-0.0022303974,-0.0024301345,0.005060006
9.653959E-4,7.656588E-4,0.009321064
0.0030959249,0.016744625,0.011451593
9.653959E-4,0.028462535,0.010386328
9.653959E-4,0.022070948,0.011451593
9.653959E-4,0.015679361,0.009321064
-9.986854E-5,0.015679361,0.005060006
-9.986854E-5,0.016744625,0.0018642128
-0.001165133,0.024201477,0.0018642128
-0.0022303974,0.033788856,0.0061252704
-0.001165133,0.03485412,0.010386328
-9.986854E-5,0.030593064,0.016777914
0.0030959249,0.029527798,0.019973708
0.0020306604,0.02739727,0.024234766
9.653959E-4,0.02739727,0.024234766
0.0030959249,0.03272359,0.01784318
9.653959E-4,0.026332006,0.012516857
-0.001165133,0.010353039,0.0039947415
-9.986854E-5,-0.003495399,7.9894834E-4
-9.986854E-5,-0.008821721,-0.0034621095
-9.986854E-5,-0.00136487,-0.002396845
-9.986854E-5,0.0114183035,0.0018642128
-9.986854E-5,0.01780989,0.0061252704
9.653959E-4,0.022070948,0.009321064
9.653959E-4,0.023136212,0.012516857
0.0020306604,0.026332006,0.010386328
9.653959E-4,0.024201477,0.010386328
-0.001165133,0.007157245,0.0061252704
-9.986854E-5,-0.00136487,-2.663161E-4
9.653959E-4,0.0028961876,-0.0066579026
-9.986854E-5,0.0039614523,-0.007723167
-0.001165133,0.0039614523,-0.0045273737
-0.001165133,0.0039614523,0.0029294773
-9.986854E-5,0.010353039,0.0061252704
0.0020306604,0.021005683,0.0061252704
9.653959E-4,0.016744625,0.007190535
-9.986854E-5,0.007157245,0.009321064
9.653959E-4,0.0018309233,0.008255799
9.653959E-4,0.0039614523,0.0029294773
-9.986854E-5,-2.9960563E-4,-0.0034621095
-0.001165133,-0.0066911923,-0.0045273737
-0.001165133,-0.008821721,-0.005592638
-0.001165133,-0.0024301345,-0.0066579026
-0.0022303974,7.656588E-4,-0.0034621095
-9.986854E-5,0.0060919807,-2.663161E-4
-9.986854E-5,0.018875154,0.005060006
-0.001165133,0.029527798,0.012516857
-9.986854E-5,0.03485412,0.018908443
-9.986854E-5,0.028462535,0.019973708
-9.986854E-5,0.021005683,0.013582122
-9.986854E-5,0.007157245,0.0039947415
-0.0022303974,-0.005625928,-0.0066579026
9.653959E-4,-0.0141480435,-0.01091896
9.653959E-4,-0.008821721,-0.007723167
-0.001165133,0.0039614523,-0.0013315806
-0.001165133,0.016744625,0.007190535
0.0020306604,0.028462535,0.010386328
0.0020306604,0.030593064,0.014647386
9.653959E-4,0.02526674,0.01784318
9.653959E-4,0.014614096,0.016777914
-0.001165133,0.0050267167,0.011451593
-0.0032956619,0.0018309233,-0.002396845
-0.0022303974,-0.0077564567,-0.014114753
-9.986854E-5,-0.016278572,-0.016245283
-0.001165133,-0.018409101,-0.01091896
-9.986854E-5,-0.012017515,-0.002396845
0.0020306604,0.015679361,0.0039947415
-9.986854E-5,0.038049914,0.008255799
-9.986854E-5,0.033788856,0.013582122
0.0020306604,0.022070948,0.01784318
0.0020306604,0.012483568,0.013582122
-9.986854E-5,-2.9960563E-4,0.0039947415
-9.986854E-5,-0.012017515,-0.007723167
-9.986854E-5,-0.0141480435,-0.011984224
-0.001165133,-0.012017515,-0.014114753
-0.0022303974,-0.0066911923,-0.011984224
-9.986854E-5,0.0039614523,-0.0045273737
0.001098554,0.0052930326,0.0032956619
3.3289514E-5,0.010619354,0.0118177775
0.0021638183,0.021272,0.0118177775
0.001098554,0.019141471,0.009687249
0.001098554,0.0084888255,0.0064914552
-0.0010319749,-0.006424876,-9.653959E-4
-0.0010319749,-0.013881727,-0.0052264538
-0.0020972393,-0.010685934,-0.008422247
-0.0031625037,-0.0074901404,-0.008422247
-0.0020972393,-0.0021638183,-0.008422247
3.3289514E-5,-0.0021638183,-0.0052264538
0.001098554,-0.0032290828,-0.0020306604
0.001098554,0.0020972393,0.0032956619
3.3289514E-5,0.010619354,0.0075567197
3.3289514E-5,0.012749883,0.009687249
0.0032290828,0.0010319749,0.009687249
0.001098554,-0.0074901404,0.0043609263
3.3289514E-5,-0.014946992,-0.0052264538
-0.0010319749,-0.022403842,-0.009487512
3.3289514E-5,-0.01920805,-0.009487512
3.3289514E-5,-0.0074901404,-0.006291718
3.3289514E-5,0.0052930326,-0.0052264538
-0.0010319749,0.013815148,-0.0041611893
3.3289514E-5,0.012749883,0.001165133
-0.0010319749,0.0031625037,0.008621984
0.0021638183,0.0010319749,0.010752513
0.0021638183,0.0052930326,0.0075567197
0.001098554,0.0031625037,-0.0030959249
-0.0020972393,-0.013881727,-0.013748569
3.3289514E-5,-0.040513337,-0.015879098
0.001098554,-0.05542704,-0.013748569
-0.0020972393,-0.052231245,-0.015879098
-0.0031625037,-0.03838281,-0.02120542
-0.0031625037,-0.027730165,-0.024401214
-0.004227768,-0.030925957,-0.026531743
-0.0031625037,-0.03412175,-0.022270685
-0.0010319749,-0.027730165,-0.014813834
3.3289514E-5,-0.014946992,-0.010552776
3.3289514E-5,-0.0053596115,-0.0073569827
-0.0010319749,0.0010319749,-0.0052264538
-0.0020972393,-0.004294347,-0.012683305
-0.0010319749,-0.020273313,-0.018009627
-0.0010319749,-0.033056486,-0.015879098
-0.0010319749,-0.035187017,-0.013748569
-0.0020972393,-0.014946992,-0.008422247
-0.0010319749,0.0084888255,-0.0030959249
-0.0020972393,0.019141471,0.0064914552
-0.0010319749,0.017010942,0.0118177775
0.001098554,0.0074235615,0.018209364
0.0021638183,0.004227768,0.019274628
0.0021638183,0.00955409,0.016078835
0.0021638183,0.014880412,0.015013571
0.001098554,0.015945677,0.013948306
0.0021638183,0.014880412,0.0118177775
0.001098554,0.0074235615,0.008621984
-0.0010319749,-0.006424876,0.001165133
-0.0020972393,-0.021338578,-9.653959E-4
3.3289514E-5,-0.029860694,-0.0020306604
-0.0020972393,-0.027730165,0.001165133
-0.004227768,-0.022403842,0.0032956619
-0.0031625037,-0.01707752,0.0032956619
0.001098554,-0.014946992,0.001165133
0.0032290828,-0.016012255,-0.0020306604
3.3289514E-5,-0.0053596115,-0.006291718
-0.0010319749,-0.0053596115,-0.0116180405
-0.0010319749,-0.009620669,-0.013748569
3.3289514E-5,-0.01707752,-0.0073569827
0.0021638183,-0.018142784,0.0032956619
0.0021638183,-0.010685934,0.0064914552
3.3289514E-5,-0.0021638183,0.0064914552
0.001098554,0.0074235615,0.0022303974
-0.0010319749,0.0074235615,0.0022303974
-0.0010319749,0.0020972393,0.0022303974
0.001098554,0.004227768,0.0022303974
3.3289514E-5,0.0031625037,0.0022303974
3.3289514E-5,-0.0074901404,0.001165133
0.001098554,-0.012816463,-9.653959E-4
3.3289514E-5,-0.012816463,-0.0041611893
-0.0010319749,-0.010685934,-0.0020306604
3.3289514E-5,-0.008555405,0.001165133
3.3289514E-5,-0.0032290828,-0.0030959249
-0.0020972393,-0.008555405,-0.0052264538
-0.0020972393,-0.018142784,-0.0073569827
0.001098554,-0.018142784,-0.0073569827
3.3289514E-5,-0.010685934,-9.653959E-4
3.3289514E-5,0.004227768,0.0075567197
3.3289514E-5,0.017010942,0.016078835
0.001098554,0.017010942,0.016078835
0.0021638183,0.0084888255,0.0118177775
0.0021638183,-0.0053596115,0.0032956619
0.001098554,-0.012816463,-0.0041611893
3.3289514E-5,-0.020273313,-0.0030959249
0.001098554,-0.018142784,-9.653959E-4
0.001098554,-0.008555405,0.0022303974
3.3289514E-5,-0.012816463,0.0032956619
3.3289514E-5,-0.014946992,-9.653959E-4
0.0021638183,-0.010685934,-0.0030959249
3.3289514E-5,-0.006424876,-0.0030959249
-0.0010319749,-0.0021638183,9.986854E-5
3.3289514E-5,0.0052930326,0.0043609263
0.001098554,0.017010942,0.009687249
0.001098554,0.024467792,0.009687249
3.3289514E-5,0.027663585,0.0075567197
-0.0010319749,0.018076206,0.0032956619
0.001098554,0.0052930326,0.0043609263
0.0032290828,0.00955409,0.008621984
0.0032290828,0.022337263,0.015013571
0.001098554,0.02872885,0.023535686
0.0021638183,0.037250966,0.02673148
0.004294347,0.035120435,0.028862009
0.001098554,0.023402527,0.025666215
0.001098554,0.012749883,0.015013571
3.3289514E-5,0.0074235615,-0.0020306604
-0.0020972393,-0.006424876,-0.015879098
-0.0020972393,-0.029860694,-0.025466477
-0.0031625037,-0.044774394,-0.029727535
-0.0020972393,-0.05329651,-0.0307928
-0.0020972393,-0.047970187,-0.023335949
-0.0010319749,-0.044774394,-0.013748569
-0.0010319749,-0.041578602,-0.009487512
3.3289514E-5,-0.03625228,-0.010552776
-0.0010319749,-0.039448075,-0.014813834
-0.0010319749,-0.049035452,-0.020140156
-0.0020972393,-0.06075336,-0.024401214
-0.0031625037,-0.069275476,-0.031858064
-0.0052930326,-0.07779759,-0.039314914
-0.004227768,-0.07779759,-0.039314914
-0.0031625037,-0.06288389,-0.03292333
-0.0052930326,-0.040513337,-0.028662272
-0.0020972393,-0.03199122,-0.01907489
-0.0010319749,-0.021338578,-0.0052264538
3.3289514E-5,-0.014946992,0.001165133
0.001098554,-0.0021638183,9.986854E-5
3.3289514E-5,0.0010319749,0.001165133
3.3289514E-5,-0.0032290828,-9.653959E-4
0.0021638183,-0.009620669,-0.0030959249
3.3289514E-5,-0.010685934,-0.0030959249
0.001098554,-0.0021638183,-9.653959E-4
0.001098554,0.0052930326,0.0022303974
0.001098554,0.013815148,0.0064914552
0.001098554,0.017010942,0.009687249
3.3289514E-5,0.011684619,0.012883042
0.001098554,0.0084888255,0.017144099
0.0021638183,0.006358297,0.020339893
3.3289514E-5,0.012749883,0.019274628
3.3289514E-5,0.022337263,0.017144099
-0.0031625037,0.027663585,0.012883042
-0.0031625037,0.022337263,0.0064914552
0.001098554,0.014880412,0.0032956619
3.3289514E-5,0.020206735,0.005426191
-0.0010319749,0.02872885,0.0064914552
-0.0010319749,0.039381493,0.0075567197
-0.0010319749,0.041512024,0.0075567197
-0.0010319749,0.03831623,0.009687249
0.001098554,0.026598321,0.017144099
0.004294347,0.026598321,0.021405157
0.0021638183,0.031924643,0.019274628
3.3289514E-5,0.025533056,0.0118177775
3.3289514E-5,0.0031625037,0.0022303974
0.001098554,-0.023469107,-0.012683305
3.3289514E-5,-0.035187017,-0.023335949
-0.004227768,-0.042643867,-0.03292333
-0.0031625037,-0.04583966,-0.033988595
3.3289514E-5,-0.039448075,-0.025466477
-0.0010319749,-0.022403842,-0.013748569
-0.0010319749,-0.001098554,-0.0030959249
0.001098554,0.0084888255,0.0064914552
0.001098554,0.006358297,0.009687249
0.001098554,-0.004294347,0.0064914552
0.001098554,-0.016012255,-9.653959E-4
-0.0010319749,-0.029860694,-0.008422247
-0.0010319749,-0.040513337,-0.013748569
-0.0020972393,-0.046904925,-0.01907489
-0.0010319749,-0.044774394,-0.022270685
-0.0010319749,-0.030925957,-0.022270685
-0.0010319749,-0.006424876,-0.012683305
3.3289514E-5,0.015945677,-9.653959E-4
0.001098554,0.029794114,0.0118177775
0.0021638183,0.0361857,0.019274628
0.0021638183,0.035120435,0.022470422
0.0032290828,0.024467792,0.021405157
0.0021638183,0.012749883,0.012883042
0.0021638183,0.0020972393,0.0022303974
0.001098554,-0.0074901404,-0.0052264538
0.001098554,-0.0032290828,-0.0073569827
3.3289514E-5,0.004227768,-0.0041611893
3.3289514E-5,0.010619354,0.0043609263
0.0032290828,0.024467792,0.010752513
0.0021638183,0.034055173,0.020339893
0.0032290828,0.032989908,0.029927272
0.006424876,0.032989908,0.037384123
0.0053596115,0.04257729,0.033123065
0.0021638183,0.04257729,0.019274628
3.3289514E-5,0.024467792,0.0032956619
-0.0010319749,-0.0053596115,-0.008422247
3.3289514E-5,-0.025599636,-0.012683305
3.3289514E-5,-0.025599636,-0.013748569
3.3289514E-5,-0.0032290828,-0.012683305
-0.0010319749,0.015945677,-0.0073569827
3.3289514E-5,0.021272,0.001165133
0.0021638183,0.019141471,0.009687249
0.001098554,0.011684619,0.016078835
0.001098554,0.004227768,0.020339893
3.3289514E-5,-0.006424876,0.008621984
3.3289514E-5,-0.018142784,-0.0073569827
-0.0010319749,-0.03838281,-0.02120542
-0.0020972393,-0.05329651,-0.028662272
-0.0010319749,-0.044774394,-0.03292333
-0.0020972393,-0.030925957,-0.028662272
-0.0020972393,-0.01707752,-0.015879098
3.3289514E-5,-0.0021638183,-0.0052264538
0.001098554,0.00955409,0.0043609263
0.001098554,0.010619354,0.010752513
0.001098554,0.0031625037,0.010752513
0.001098554,-0.011751198,0.0064914552
0.001098554,-0.027730165,-0.0041611893
3.3289514E-5,-0.042643867,-0.013748569
-0.0020972393,-0.052231245,-0.01907489
-0.0010319749,-0.047970187,-0.01907489
3.3289514E-5,-0.029860694,-0.0116180405
3.3289514E-5,-0.0074901404,-0.0030959249
0.001098554,0.0084888255,0.0064914552
0.0021638183,0.013815148,0.016078835
0.0021638183,0.012749883,0.022470422
0.0021638183,0.012749883,0.019274628
0.001098554,0.0031625037,0.016078835
3.3289514E-5,-0.009620669,0.008621984
3.3289514E-5,-0.028795429,-0.0020306604
-0.0010319749,-0.043709133,-0.0116180405
3.3289514E-5,-0.043709133,-0.0116180405
0.001098554,-0.03625228,-0.0073569827
3.3289514E-5,-0.01920805,0.001165133
0.0021638183,-0.001098554,0.010752513
0.0032290828,0.014880412,0.017144099
0.0032290828,0.012749883,0.019274628
0.0021638183,-0.001098554,0.012883042
0.0021638183,-0.021338578,0.0043609263
-0.0010319749,-0.042643867,-0.009487512
-0.0010319749,-0.06288389,-0.024401214
-0.0020972393,-0.0746018,-0.037184387
-0.0031625037,-0.08418918,-0.043575972
-0.0052930326,-0.08205865,-0.044641238
-0.0052930326,-0.07886286,-0.04038018
-0.004227768,-0.07779759,-0.027597006
-0.0020972393,-0.06394915,-0.015879098
3.3289514E-5,-0.044774394,-0.009487512
3.3289514E-5,-0.03199122,-0.0030959249
3.3289514E-5,-0.022403842,0.0022303974
0.001098554,-0.020273313,0.005426191
0.0032290828,-0.013881727,0.001165133
-0.0010319749,-0.016012255,-0.0073569827
-0.0031625037,-0.028795429,-0.018009627
-0.0031625037,-0.04583966,-0.025466477
-0.004227768,-0.05329651,-0.029727535
-0.0052930326,-0.044774394,-0.029727535
-0.0031625037,-0.03199122,-0.018009627
-0.0010319749,-0.023469107,-0.006291718
3.3289514E-5,-0.001098554,0.0043609263
0.001098554,0.012749883,0.008621984
0.0021638183,0.00955409,0.013948306
0.0021638183,-0.001098554,0.013948306
0.001098554,-0.0074901404,0.010752513
3.3289514E-5,-0.021338578,0.005426191
3.3289514E-5,-0.022403842,-0.0030959249
-0.0010319749,-0.022403842,-0.010552776
-0.0031625037,-0.027730165,-0.012683305
-0.0020972393,-0.02453437,-0.009487512
0.001098554,-0.012816463,-0.0030959249
3.3289514E-5,-0.0021638183,0.0043609263
0.001098554,0.006358297,0.0064914552
0.0021638183,0.014880412,0.009687249
0.001098554,0.018076206,0.0075567197
-0.0020972393,0.020206735,0.005426191
-0.0031625037,0.014880412,0.0043609263
-0.0010319749,0.0052930326,0.005426191
-0.0010319749,0.0031625037,0.0043609263
-0.0010319749,0.0010319749,0.0022303974
3.3289514E-5,-0.001098554,0.0022303974
0.001098554,-0.0032290828,0.0022303974
3.3289514E-5,-0.0021638183,0.0022303974
0.001098554,0.0020972393,0.0022303974
0.001098554,0.006358297,0.0043609263
3.3289514E-5,0.010619354,0.0064914552
0.001098554,0.00955409,0.0064914552
0.0021638183,0.0074235615,0.0032956619
3.3289514E-5,0.0020972393,0.001165133
3.3289514E-5,-0.0053596115,9.986854E-5
3.3289514E-5,-0.008555405,-9.653959E-4
3.3289514E-5,-0.004294347,-0.0020306604
-0.0010319749,0.0010319749,-0.0020306604
-0.0010319749,0.0020972393,-0.0052264538
3.3289514E-5,-0.0032290828,-0.0041611893
0.001098554,-0.008555405,-0.0020306604
0.001098554,-0.006424876,-9.653959E-4
3.3289514E-5,-0.0021638183,-0.0020306604
0.001098554,0.0020972393,-0.0030959249
3.3289514E-5,-0.004294347,9.986854E-5
3.3289514E-5,-0.009620669,0.0022303974
0.001098554,-0.008555405,0.001165133
0.001098554,-0.004294347,9.986854E-5
3.3289514E-5,-0.0032290828,-9.653959E-4
0.001098554,-0.0021638183,-0.0020306604
3.3289514E-5,-0.004294347,9.986854E-5
-0.0010319749,-0.010685934,-9.653959E-4
-0.0010319749,-0.009620669,9.986854E-5
-0.0010319749,-0.009620669,0.001165133
-0.0010319749,-0.010685934,9.986854E-5
3.3289514E-5,-0.008555405,0.001165133
3.3289514E-5,-0.001098554,-9.653959E-4
3.3289514E-5,0.0020972393,-0.0030959249
-0.0010319749,0.0010319749,-0.0020306604
3.3289514E-5,-0.004294347,9.986854E-5
3.3289514E-5,-0.009620669,0.0032956619
0.001098554,-0.009620669,9.986854E-5
-0.0010319749,-0.011751198,-0.0041611893
-0.0020972393,-0.020273313,-0.0041611893
-0.0020972393,-0.02453437,-0.0041611893
-0.0010319749,-0.016012255,-0.0030959249
-0.0031625037,-0.008555405,-0.0020306604
-0.0031625037,-0.004294347,0.001165133
-0.0010319749,-0.0032290828,0.0022303974
-0.0010319749,-0.0032290828,0.0022303974
-0.0010319749,-0.009620669,9.986854E-5
3.3289514E-5,-0.018142784,-9.653959E-4
0.001098554,-0.020273313,-0.0020306604
-0.0010319749,-0.020273313,-0.0041611893
3.3289514E-5,-0.021338578,-0.0020306604
0.001098554,-0.01707752,9.986854E-5
0.001098554,-0.0053596115,0.001165133
-0.0010319749,0.0031625037,-0.0020306604
0.0021638183,0.004227768,-9.653959E-4
0.0021638183,-3.3289514E-5,0.0043609263
0.0021638183,0.0020972393,0.008621984
0.001098554,0.0084888255,0.010752513
3.3289514E-5,0.010619354,0.008621984
3.3289514E-5,-0.001098554,0.0022303974
-0.0010319749,-0.016012255,-0.0041611893
0.001098554,-0.016012255,-0.0052264538
3.3289514E-5,-0.009620669,-0.0030959249
3.3289514E-5,-0.004294347,9.986854E-5
-0.0010319749,-0.004294347,0.0032956619
0.001098554,-0.0053596115,0.0043609263
0.001098554,-0.001098554,0.0022303974
0.001098554,-0.001098554,9.986854E-5
0.001098554,-0.0053596115,0.001165133
0.001098554,-0.008555405,0.001165133
0.001098554,-0.0074901404,9.986854E-5
0.001098554,-0.0021638183,9.986854E-5
-0.0010319749,-0.001098554,-9.653959E-4
-0.0020972393,-0.001098554,-0.0041611893
3.3289514E-5,-0.0053596115,-0.0041611893
0.001098554,-0.010685934,9.986854E-5
0.001098554,-0.006424876,0.005426191
0.001098554,0.006358297,0.005426191
0.0027630297,0.019574234,0.006757771
6.3250074E-4,0.024900556,0.007823036
6.3250074E-4,0.019574234,0.004627242
-0.001498028,0.006791061,0.003561978
6.3250074E-4,-6.657903E-4,0.003561978
-4.3276369E-4,0.007856325,0.004627242
-0.0025632926,0.018508969,0.006757771
-0.001498028,0.029161613,0.012084093
6.3250074E-4,0.035553202,0.01634515
6.3250074E-4,0.025965821,0.017410416
-4.3276369E-4,0.012117383,0.0110188285
-4.3276369E-4,-0.0070573767,0.0024967135
6.3250074E-4,-0.014514227,-0.008155931
0.0016977652,-0.014514227,-0.013482253
-4.3276369E-4,-0.008122642,-0.013482253
6.3250074E-4,-0.005992112,-0.009221195
0.0027630297,0.002530003,3.6618466E-4
6.3250074E-4,0.011052119,0.007823036
0.0027630297,0.011052119,0.009953564
0.0016977652,0.0057257963,0.007823036
0.0016977652,-0.011318435,0.0024967135
0.0016977652,-0.020905815,-0.003894873
-0.001498028,-0.023036344,-0.011351724
-0.001498028,-0.021971079,-0.013482253
-0.001498028,-0.024101608,-0.009221195
0.0016977652,-0.026232136,-0.0017643442
0.0027630297,-0.015579492,0.003561978
0.0027630297,-0.008122642,0.0056925067
0.0016977652,3.9947417E-4,-6.9907977E-4
-4.3276369E-4,0.0014647386,-0.008155931
-4.3276369E-4,-0.013448963,-0.011351724
6.3250074E-4,-0.024101608,-0.006025402
6.3250074E-4,-0.018775286,-0.0049601374
-0.0025632926,-0.011318435,-0.012416989
-0.0046938215,-0.015579492,-0.018808575
-0.0025632926,-0.026232136,-0.025200162
-4.3276369E-4,-0.015579492,-0.032657012
-4.3276369E-4,0.0131826475,-0.03691807
0.0016977652,0.053662695,-0.033722278
0.0016977652,0.05898902,-0.020939104
6.3250074E-4,0.043010052,-0.0070906663
0.0027630297,0.030226879,0.003561978
0.0027630297,0.023835292,0.0056925067
6.3250074E-4,0.027031085,0.0024967135
-4.3276369E-4,0.022770027,3.6618466E-4
-0.001498028,0.00892159,0.0014314491
-0.0025632926,-0.0038615835,0.004627242
-0.0036285568,-0.0038615835,0.0056925067
-0.0046938215,0.0035952674,0.0056925067
-0.0025632926,0.0131826475,0.006757771
-0.001498028,0.022770027,0.006757771
-4.3276369E-4,0.021704763,0.0056925067
-4.3276369E-4,0.0131826475,0.004627242
0.0027630297,0.014247912,0.0024967135
0.0027630297,0.017443705,-0.0017643442
-0.001498028,0.011052119,-0.0017643442
-0.0025632926,-0.0017310547,0.0024967135
0.0016977652,-0.0049268478,0.004627242
0.0016977652,0.002530003,0.0056925067
-0.001498028,0.00892159,0.0014314491
-4.3276369E-4,0.0057257963,-6.9907977E-4
-4.3276369E-4,-0.0038615835,3.6618466E-4
-4.3276369E-4,-0.0070573767,-0.0070906663
-0.001498028,-0.005992112,-0.0049601374
6.3250074E-4,3.9947417E-4,-0.0017643442
6.3250074E-4,0.0035952674,0.003561978
-4.3276369E-4,0.009986854,0.0024967135
-0.001498028,0.004660532,-0.0028296087
-4.3276369E-4,-0.008122642,-0.006025402
6.3250074E-4,-0.016644757,-0.0070906663
-4.3276369E-4,-0.014514227,-0.006025402
-0.001498028,-0.002796319,-0.0028296087
-0.001498028,0.0014647386,-6.9907977E-4
-0.0025632926,0.004660532,-0.008155931
-0.001498028,3.9947417E-4,-0.0070906663
6.3250074E-4,-0.0070573767,-6.9907977E-4
0.0016977652,0.006791061,0.007823036
6.3250074E-4,0.022770027,0.0110188285
6.3250074E-4,0.03342267,0.007823036
6.3250074E-4,0.029161613,0.0024967135
6.3250074E-4,0.014247912,-6.9907977E-4
0.0016977652,0.0035952674,-0.0017643442
0.0016977652,0.0057257963,0.0014314491
6.3250074E-4,0.017443705,3.6618466E-4
-4.3276369E-4,0.020639498,-0.0028296087
-4.3276369E-4,0.006791061,-0.0028296087
-0.001498028,-0.0049268478,-0.0028296087
-0.0025632926,-0.005992112,-0.003894873
-0.0036285568,3.9947417E-4,-0.006025402
-0.0046938215,3.9947417E-4,-0.006025402
-0.0025632926,-6.657903E-4,-0.008155931
-0.001498028,-0.012383699,-0.003894873
-0.001498028,-0.020905815,-0.0049601374
6.3250074E-4,-0.01771002,-0.0028296087
-4.3276369E-4,-0.002796319,-0.0017643442
6.3250074E-4,0.01637844,3.6618466E-4
6.3250074E-4,0.025965821,0.004627242
9.986854E-5,0.014946992,0.009321064
0.001165133,0.006424876,0.008255799
0.001165133,3.3289514E-5,0.007190535
9.986854E-5,0.0032290828,0.005060006
-9.653959E-4,0.008555405,0.008255799
0.0022303974,0.013881727,0.01571265
0.0022303974,0.02453437,0.01571265
9.986854E-5,0.027730165,0.013582122
0.0022303974,0.01707752,0.008255799
0.001165133,3.3289514E-5,0.0039947415
9.986854E-5,-0.0074235615,-0.002396845
9.986854E-5,-0.006358297,-0.002396845
9.986854E-5,-0.006358297,-0.002396845
9.986854E-5,-0.010619354,7.9894834E-4
-9.653959E-4,-0.010619354,0.0039947415
9.986854E-5,-0.006358297,0.005060006
9.986854E-5,-0.0010319749,0.0039947415
9.986854E-5,-0.0052930326,7.9894834E-4
9.986854E-5,-0.013815148,-0.0013315806
9.986854E-5,-0.022337263,-0.002396845
0.001165133,-0.020206735,-0.002396845
9.986854E-5,-0.013815148,-2.663161E-4
-0.0020306604,-0.0084888255,7.9894834E-4
-9.653959E-4,-0.0052930326,7.9894834E-4
-9.653959E-4,3.3289514E-5,-2.663161E-4
-9.653959E-4,-0.0010319749,7.9894834E-4
0.001165133,-0.006358297,0.0018642128
0.0022303974,-0.0010319749,0.005060006
0.001165133,0.008555405,0.0039947415
-9.653959E-4,0.010685934,0.0018642128
-9.653959E-4,0.0032290828,0.0039947415
9.986854E-5,3.3289514E-5,0.0061252704
8.9881686E-4,0.015180018,0.0012650015
-0.0022969765,0.026897926,0.0033955304
-0.0022969765,0.025832662,0.007656588
-0.0012317119,0.024767399,0.010852382
8.9881686E-4,0.020506341,0.0129829105
8.9881686E-4,0.016245283,0.011917646
8.9881686E-4,0.018375812,0.0065913238
8.9881686E-4,0.019441076,0.002330266
-1.6644757E-4,0.019441076,0.0012650015
-0.0012317119,0.015180018,-8.6552737E-4
-0.0012317119,0.007723167,-8.6552737E-4
8.9881686E-4,0.0066579026,-0.0019307918
-0.0022969765,0.01091896,-0.002996056
-0.004427505,0.005592638,-0.002996056
-0.0054927696,-0.0061252704,-0.002996056
-0.0054927696,-0.011451593,0.0033955304
-0.0033622407,-0.028495824,0.008721853
-0.0022969765,-0.016777914,0.0033955304
-0.0033622407,0.017310547,-0.004061321
-0.006558034,0.031158984,-0.0104529075
-0.009753827,0.005592638,-0.015779229
-0.006558034,-0.026365295,-0.015779229
0.0019640813,-0.07536746,-0.004061321
0.006225139,-0.10199907,0.007656588
0.006225139,-0.06897587,0.008721853
8.9881686E-4,-0.0231695,0.0055260593
0.0019640813,0.002396845,0.002330266
0.006225139,-0.0039947415,0.0033955304
0.0072904034,-0.02530003,0.0012650015
0.0072904034,-0.044474788,-0.0051265853
0.006225139,-0.055127434,-0.012583436
0.0019640813,-0.051931642,-0.022170816
-0.0012317119,-0.05406217,-0.027497139
-0.0012317119,-0.06258429,-0.022170816
8.9881686E-4,-0.0561927,-0.015779229
8.9881686E-4,-0.03914847,-0.009387643
8.9881686E-4,-0.01571265,-0.0072571137
-1.6644757E-4,0.0034621095,-0.002996056
-1.6644757E-4,0.007723167,0.0033955304
-1.6644757E-4,0.015180018,0.002330266
-0.0022969765,0.023702133,-8.6552737E-4
-1.6644757E-4,0.021571605,0.002330266
-1.6644757E-4,0.025832662,0.0012650015
-0.0012317119,0.024767399,0.0055260593
-1.6644757E-4,0.025832662,0.0065913238
-1.6644757E-4,0.025832662,0.0055260593
8.9881686E-4,0.011984224,0.0055260593
8.9881686E-4,0.002396845,1.9973709E-4
0.0019640813,2.663161E-4,-0.0061918497
8.9881686E-4,0.002396845,-0.002996056
-1.6644757E-4,0.0034621095,-8.6552737E-4
8.9881686E-4,0.01091896,0.007656588
8.9881686E-4,0.021571605,0.008721853
0.0019640813,0.033289514,0.007656588
-1.6644757E-4,0.03542004,0.004460795
8.9881686E-4,0.025832662,0.004460795
0.0019640813,0.018375812,0.007656588
-1.6644757E-4,0.016245283,0.008721853
-0.0012317119,0.018375812,0.008721853
-0.0012317119,0.024767399,0.0065913238
-0.0022969765,0.016245283,0.0033955304
-1.6644757E-4,2.663161E-4,-0.0019307918
-1.6644757E-4,-0.0029294773,-0.004061321
8.9881686E-4,0.002396845,-0.0061918497
-1.6644757E-4,0.014114753,-0.004061321
-1.6644757E-4,0.027963191,-0.0019307918
8.9881686E-4,0.025832662,0.002330266
8.9881686E-4,0.017310547,0.004460795
-1.6644757E-4,0.015180018,0.0055260593
8.9881686E-4,0.014114753,0.007656588
8.9881686E-4,0.018375812,0.0055260593
-0.0012317119,0.014114753,0.004460795
-0.0022969765,0.0045273737,0.0033955304
-0.0012317119,-0.014647386,0.0012650015
-0.0012317119,-0.03488741,0.0012650015
-0.004427505,-0.058323227,0.002330266
-0.0076232986,-0.084954835,0.0065913238
-0.014014885,-0.14034858,0.017243968
-0.01294962,-0.20639499,0.024700819
-0.0012317119,-0.17337179,0.014048175
-0.004427505,-0.0743022,-0.0061918497
-0.006558034,-0.028495824,-0.013648701
-0.004427505,0.011984224,-0.009387643
0.0030293458,0.037550572,0.004460795
0.0051598744,0.052464273,0.011917646
0.0030293458,0.064182185,0.009787117
0.0030293458,0.059921123,0.0033955304
0.0019640813,0.037550572,-0.002996056
0.0019640813,0.014114753,-0.011518172
0.0019640813,2.663161E-4,-0.016844494
0.0019640813,0.0045273737,-0.017909758
8.9881686E-4,0.020506341,-0.015779229
-1.6644757E-4,0.024767399,-0.0072571137
0.00409461,0.034354776,1.9973709E-4
0.0051598744,0.04713795,0.008721853
8.9881686E-4,0.036485307,0.016178703
-0.0022969765,0.008788432,0.02257029
-0.0033622407,-0.037017938,0.021505026
-0.008688563,-0.084954835,0.0033955304
-0.01721068,-0.14247912,-0.011518172
-0.020406472,-0.19467707,-0.018975023
-0.011884356,-0.14567491,-0.03495399
-0.006558034,-0.060453758,-0.04560663
-0.010819091,0.01091896,-0.040280312
-0.004427505,0.052464273,-0.024301345
0.0019640813,0.076965354,-0.0051265853
0.0051598744,0.07590009,0.007656588
0.0051598744,0.06737798,0.0055260593
0.0030293458,0.04926848,-0.0104529075
8.9881686E-4,0.01091896,-0.02536661
8.9881686E-4,-0.018908443,-0.031758197
8.9881686E-4,-0.03275688,-0.028562402
0.0019640813,-0.021038972,-0.023236081
0.0019640813,0.008788432,-0.017909758
8.9881686E-4,0.029028455,-0.0104529075
8.9881686E-4,0.029028455,1.9973709E-4
0.00409461,0.024767399,0.0055260593
0.006225139,0.03009372,0.009787117
0.00409461,0.037550572,0.009787117
0.0019640813,0.025832662,0.008721853
0.00409461,0.015180018,1.9973709E-4
0.0030293458,-0.0018642128,-0.0104529075
-0.0012317119,-0.022104237,-0.013648701
-0.0012317119,-0.03275688,-0.014713965
-0.0022969765,-0.024234766,-0.016844494
-0.0054927696,-0.021038972,-0.016844494
-0.0076232986,-0.030626353,-0.013648701
-0.006558034,-0.043409526,-0.0061918497
-0.004427505,-0.045540053,0.004460795
-0.0054927696,-0.041278996,0.010852382
-0.006558034,-0.043409526,0.007656588
-0.0012317119,-0.051931642,0.002330266
0.0019640813,-0.0561927,-0.0019307918
0.0030293458,-0.048735846,-0.0019307918
0.0030293458,-0.03169162,-0.0061918497
-1.6644757E-4,-0.01784318,-0.0051265853
-1.6644757E-4,-0.016777914,-0.004061321
0.0019640813,-0.0039947415,-0.002996056
0.0030293458,0.008788432,-0.0019307918
0.0019640813,0.018375812,1.9973709E-4
0.0019640813,0.023702133,0.0055260593
0.0030293458,0.024767399,0.008721853
0.0030293458,0.024767399,0.0065913238
0.0019640813,0.023702133,0.0055260593
-1.6644757E-4,0.01091896,0.0065913238
-0.0012317119,-0.010386328,0.007656588
-0.0012317119,-0.035952676,0.008721853
-0.0033622407,-0.0561927,0.0129829105
-0.0012317119,-0.05406217,0.015113439
8.9881686E-4,-0.011451593,0.0065913238
-0.0012317119,0.019441076,1.9973709E-4
-0.0022969765,0.02263687,0.002330266
0.0019640813,0.005592638,0.010852382
0.0072904034,0.005592638,0.011917646
0.00409461,0.02263687,0.008721853
0.0030293458,0.033289514,0.007656588
0.00409461,0.03009372,0.0055260593
0.00409461,0.018375812,0.0012650015
0.0030293458,0.005592638,1.9973709E-4
0.0019640813,0.002396845,1.9973709E-4
0.0019640813,0.0034621095,1.9973709E-4
8.9881686E-4,0.007723167,-0.0051265853
8.9881686E-4,0.007723167,-0.0061918497
0.0019640813,0.008788432,-0.0051265853
-1.6644757E-4,0.015180018,-0.002996056
-0.0012317119,0.020506341,-8.6552737E-4
-1.6644757E-4,0.021571605,1.9973709E-4
8.9881686E-4,0.020506341,-0.0019307918
8.9881686E-4,0.014114753,-0.002996056
0.0019640813,0.005592638,-0.0051265853
-0.0012317119,-0.0061252704,-0.004061321
-0.0033622407,-0.027430559,-8.6552737E-4
-0.0022969765,-0.045540053,0.0033955304
0.00409461,-0.011451593,-0.008322379
8.9881686E-4,0.023702133,-0.012583436
-0.0022969765,0.025832662,-0.013648701
-0.0022969765,2.663161E-4,-0.009387643
8.9881686E-4,-0.033822145,-0.002996056
0.0019640813,-0.033822145,-0.002996056
0.0019640813,-0.0061252704,-0.004061321
-1.6644757E-4,0.016245283,-0.004061321
-0.0012317119,0.016245283,-0.0019307918
8.9881686E-4,0.0066579026,-8.6552737E-4
0.0019640813,-0.0029294773,-0.0019307918
-1.6644757E-4,-0.008255799,-0.0019307918
-0.0012317119,-0.007190535,1.9973709E-4
8.9881686E-4,-0.0039947415,-8.6552737E-4
8.9881686E-4,0.0045273737,-0.002996056
-1.6644757E-4,0.011984224,-0.004061321
-1.6644757E-4,0.008788432,1.9973709E-4
8.9881686E-4,0.0013315806,1.9973709E-4
8.9881686E-4,-7.9894834E-4,-8.6552737E-4
-1.6644757E-4,-0.0018642128,-0.004061321
-0.0012317119,-0.0029294773,-0.004061321
-1.6644757E-4,-0.0039947415,-0.0019307918
8.9881686E-4,-7.9894834E-4,-8.6552737E-4
8.9881686E-4,-0.005060006,1.9973709E-4
-1.6644757E-4,-0.005060006,-0.0019307918
0.0019640813,-0.0039947415,-0.004061321
-1.6644757E-4,-0.0029294773,-0.0061918497
-0.0012317119,-0.009321064,-0.0061918497
-1.6644757E-4,-0.01784318,-0.002996056
0.0019640813,-0.016777914,-0.002996056
0.0019640813,-0.005060006,-0.0019307918
-1.6644757E-4,-0.0039947415,-0.004061321
-1.6644757E-4,-0.010386328,-0.0051265853
8.9881686E-4,-0.011451593,-0.004061321
-1.6644757E-4,-0.0061252704,-0.004061321
-0.0022969765,-7.9894834E-4,-0.002996056
-0.0012317119,0.002396845,-0.0019307918
-1.6644757E-4,0.0013315806,0.0012650015
-1.6644757E-4,2.663161E-4,0.0012650015
-1.6644757E-4,-0.0029294773,1.9973709E-4
8.9881686E-4,-0.0029294773,-8.6552737E-4
8.9881686E-4,2.663161E-4,-0.0019307918
0.0030293458,0.005592638,1.9973709E-4
0.0030293458,0.008788432,0.0012650015
0.0019640813,0.0034621095,0.002330266
8.9881686E-4,-0.0029294773,0.0012650015
8.9881686E-4,-0.007190535,-0.0051265853
-1.6644757E-4,-0.008255799,-0.008322379
-0.0022969765,-0.007190535,-0.0072571137
-1.6644757E-4,-0.0061252704,-0.0019307918
8.9881686E-4,-0.0018642128,0.0012650015
-1.6644757E-4,0.0045273737,-0.002996056
-0.0015646071,0.0018642128,-0.0017310547
5.659217E-4,-0.0045273737,-6.657903E-4
0.0016311861,-0.0013315806,0.002530003
0.0016311861,0.008255799,0.0014647386
5.659217E-4,0.018908443,0.002530003
5.659217E-4,0.019973708,0.0057257963
0.0016311861,0.021038972,0.006791061
5.659217E-4,0.009321064,0.007856325
-0.0015646071,-0.0066579026,3.9947417E-4
-4.993427E-4,-0.013049489,-0.005992112
-4.993427E-4,-0.011984224,-0.0102531705
-0.0015646071,-0.0098536955,-0.0038615835
-0.0015646071,-0.0066579026,-6.657903E-4
5.659217E-4,7.9894834E-4,3.9947417E-4
-4.993427E-4,0.0061252704,-0.0017310547
-0.0026298715,-0.002396845,-0.0038615835
-0.0015646071,-0.011984224,-0.0038615835
5.659217E-4,-0.013049489,-0.008122642
-0.0015646071,-0.0098536955,-0.0102531705
-0.0015646071,-0.007723167,-0.005992112
5.659217E-4,-0.0034621095,0.004660532
0.0016311861,0.009321064,0.006791061
-0.0015646071,0.013582122,0.004660532
-0.0015646071,-0.0013315806,-6.657903E-4
-0.0015646071,-0.014114753,-0.0049268478
-0.0015646071,-0.0066579026,-0.009187906
-0.0026298715,0.0018642128,-0.0070573767
-0.0026298715,0.009321064,-0.002796319
-0.0015646071,0.0061252704,0.002530003
5.659217E-4,0.009321064,0.004660532
5.659217E-4,0.012516857,0.0035952674
-0.0015646071,0.008255799,0.0057257963
0.0011318434,0.0061918497,0.007456851
0.0032623722,0.011518172,0.0063915867
0.0011318434,0.016844494,0.0063915867
-9.986854E-4,0.015779229,0.0053263223
0.0011318434,0.013648701,0.004261058
0.0011318434,0.0104529075,0.0031957934
6.657903E-5,0.0051265853,0.002130529
0.0011318434,0.0051265853,0.0
6.657903E-5,0.009387643,0.0
6.657903E-5,0.0051265853,0.0010652645
0.0011318434,8.6552737E-4,0.0010652645
0.0011318434,-1.9973709E-4,0.0010652645
0.0011318434,0.009387643,0.002130529
6.657903E-5,0.009387643,0.0053263223
0.002197108,0.008322379,0.0053263223
0.002197108,0.008322379,0.0053263223
0.0011318434,0.004061321,0.002130529
6.657903E-5,8.6552737E-4,0.0010652645
6.657903E-5,-0.0055260593,-0.0010652645
0.0011318434,-0.0033955304,-0.004261058
-9.986854E-4,-0.0033955304,-0.007456851
0.0011318434,-0.0065913238,-0.008522116
0.0011318434,8.6552737E-4,-0.010652645
-0.0031292143,8.6552737E-4,-0.015978966
-0.0031292143,-0.008721853,-0.015978966
-0.0020639498,-0.033222936,-0.0031957934
0.0011318434,-0.040679786,0.0031957934
0.0032623722,-0.024700819,0.0063915867
0.0011318434,-0.002330266,0.0031957934
6.657903E-5,0.014713965,-0.0031957934
-9.986854E-4,0.0019307918,-0.004261058
6.657903E-5,-0.021505026,-0.004261058
0.0016977652,-0.031358723,-0.002996056
-4.3276369E-4,-0.02390187,-0.0019307918
-4.3276369E-4,-0.011118697,-0.0051265853
-0.001498028,-0.0068576396,-0.0104529075
-0.001498028,-0.01431449,-0.011518172
-4.3276369E-4,-0.017510284,-0.011518172
-0.0025632926,-0.01644502,-0.008322379
-0.0036285568,-0.012183961,-0.004061321
-0.0046938215,-0.01431449,1.9973709E-4
-4.3276369E-4,-0.002596582,-0.002996056
-4.3276369E-4,0.008056062,-0.0051265853
-0.0025632926,0.006990798,-0.0051265853
-0.001498028,-4.660532E-4,-0.0061918497
-4.3276369E-4,-0.0068576396,-0.0051265853
0.0016977652,-0.007922905,1.9973709E-4
0.0016977652,0.0016644757,0.004460795
6.3250074E-4,0.010186591,0.0065913238
6.3250074E-4,0.01231712,0.004460795
6.3250074E-4,0.010186591,0.002330266
0.0016977652,0.0059255334,0.0033955304
6.3250074E-4,0.006990798,0.004460795
6.3250074E-4,0.004860269,0.0065913238
6.3250074E-4,0.010186591,0.007656588
6.3250074E-4,0.010186591,0.009787117
-4.3276369E-4,0.008056062,0.008721853
-4.3276369E-4,0.009121327,0.0065913238
-4.3276369E-4,0.0059255334,0.0055260593
0.0016977652,0.0037950044,0.007656588
0.0027630297,0.009121327,0.008721853
6.3250074E-4,0.0219045,0.0065913238
-4.3276369E-4,0.019773971,0.0055260593
6.3250074E-4,0.013382385,0.007656588
-4.3276369E-4,0.010186591,0.002330266
6.3250074E-4,0.01231712,-0.0019307918
-0.001498028,0.004860269,-0.0019307918
-4.3276369E-4,-0.0047271107,-0.0019307918
0.0016977652,-0.0036618465,-0.002996056
-4.3276369E-4,-0.0015313176,-8.6552737E-4
-0.001498028,0.0016644757,-8.6552737E-4
-0.001498028,0.00272974,-8.6552737E-4
-4.3276369E-4,0.0016644757,0.002330266
-0.001498028,-0.002596582,0.002330266
-4.3276369E-4,5.9921126E-4,-8.6552737E-4
-4.3276369E-4,0.0037950044,1.9973709E-4
-4.3276369E-4,0.010186591,0.0033955304
-4.3276369E-4,0.01231712,0.002330266
-0.001498028,0.0059255334,-0.0019307918
-0.001498028,-0.005792375,1.9973709E-4
-0.001498028,-0.005792375,0.002330266
-0.001498028,0.0037950044,0.0033955304
-0.0025632926,0.018708706,1.9973709E-4
-0.0036285568,0.022969764,0.0012650015
-0.001498028,0.01231712,0.0012650015
6.3250074E-4,0.0037950044,0.0012650015
-4.3276369E-4,0.00272974,-0.0019307918
-0.001498028,-4.660532E-4,-0.004061321
-4.3276369E-4,-0.005792375,-0.002996056
0.0016977652,-0.0068576396,-0.002996056
6.3250074E-4,-0.0036618465,-0.002996056
-4.3276369E-4,-0.0015313176,-0.002996056
-4.3276369E-4,-0.0015313176,-0.0019307918
-4.3276369E-4,-0.0015313176,-0.002996056
-4.3276369E-4,-0.0015313176,-0.0019307918
-4.3276369E-4,-4.660532E-4,1.9973709E-4
6.3250074E-4,0.00272974,0.0012650015
2.330266E-4,3.6618466E-4,7.323693E-4
2.330266E-4,-0.003894873,0.0039281626
0.001298291,-6.9907977E-4,0.004993427
0.0023635554,0.0056925067,0.009254484
0.0023635554,0.012084093,0.012450278
2.330266E-4,0.01634515,0.00818922
-8.322378E-4,0.0056925067,0.0039281626
0.0023635554,-0.0049601374,-3.3289514E-4
2.330266E-4,-0.008155931,-0.0024634239
2.330266E-4,-0.009221195,-0.004593953
0.0023635554,-0.008155931,-0.0013981595
0.001298291,-0.0049601374,-3.3289514E-4
2.330266E-4,-0.003894873,7.323693E-4
0.001298291,-0.0028296087,0.0028628982
0.0023635554,-0.003894873,0.0017976337
2.330266E-4,-0.006025402,0.0017976337
-8.322378E-4,-0.0070906663,-3.3289514E-4
2.330266E-4,-0.006025402,-0.0024634239
0.001298291,-0.003894873,-0.0035286883
2.330266E-4,-0.0028296087,-0.0024634239
2.330266E-4,-0.0049601374,-0.0013981595
2.330266E-4,-6.9907977E-4,-3.3289514E-4
0.001298291,0.006757771,0.0039281626
2.330266E-4,0.007823036,0.0039281626
0.001298291,0.0056925067,0.0028628982
2.330266E-4,0.003561978,-3.3289514E-4
-8.322378E-4,0.0024967135,-3.3289514E-4
-8.322378E-4,0.006757771,7.323693E-4
-0.0018975022,0.012084093,7.323693E-4
-0.0018975022,0.014214622,0.0017976337
-8.322378E-4,0.0088883005,0.0039281626
0.001298291,0.0024967135,0.0039281626
7.9894834E-4,-0.0037284256,1.6644757E-4
-2.663161E-4,-0.007989483,-8.9881686E-4
-2.663161E-4,-0.0058589545,-0.00409461
0.0018642128,0.0037284256,-0.006225139
7.9894834E-4,0.007989483,-0.00409461
-2.663161E-4,0.0026631611,-8.9881686E-4
7.9894834E-4,-0.0058589545,0.0012317119
7.9894834E-4,-0.011185276,-0.0030293458
-0.0013315806,-0.006924219,-0.0051598744
-2.663161E-4,-0.007989483,-0.006225139
-2.663161E-4,-0.010120012,-0.00409461
-2.663161E-4,-0.009054747,-0.0030293458
-2.663161E-4,-5.326322E-4,-0.0030293458
-0.0013315806,0.0026631611,0.0012317119
7.9894834E-4,0.00479369,0.0012317119
0.0018642128,0.009054747,1.6644757E-4
-2.663161E-4,0.0037284256,-8.9881686E-4
7.9894834E-4,-0.0037284256,0.0022969765
0.0018642128,-0.0058589545,0.0033622407
7.9894834E-4,-0.0058589545,0.0033622407
-0.0013315806,-0.013315805,0.004427505
-0.0013315806,-0.015446334,1.6644757E-4
-2.663161E-4,-0.009054747,1.6644757E-4
-2.663161E-4,5.326322E-4,0.0054927696
-2.663161E-4,0.010120012,0.008688563
-2.663161E-4,0.016511599,0.006558034
-2.663161E-4,0.016511599,0.006558034
7.9894834E-4,0.009054747,0.0054927696
7.9894834E-4,0.0026631611,0.0012317119
-2.663161E-4,-0.0026631611,-0.0030293458
-2.663161E-4,-0.007989483,-0.006225139
-2.663161E-4,-0.00479369,-0.006225139
-0.0024967135,-0.0043609263,-0.0060586915
-3.6618466E-4,-0.0032956619,0.0013981595
6.9907977E-4,0.0041611893,0.0024634239
-0.0014314491,0.010552776,0.0024634239
-0.0014314491,0.006291718,3.3289514E-4
-3.6618466E-4,0.0041611893,3.3289514E-4
-0.0014314491,0.0030959249,3.3289514E-4
-0.0024967135,0.0116180405,-0.0017976337
-0.003561978,0.013748569,-0.0028628982
-0.0024967135,9.653959E-4,-0.004993427
-3.6618466E-4,-0.005426191,-0.0039281626
6.9907977E-4,-0.0032956619,-0.0028628982
-3.6618466E-4,-0.0022303974,-0.0017976337
-3.6618466E-4,-9.986854E-5,-0.0028628982
6.9907977E-4,0.0030959249,0.0013981595
0.0017643442,-0.0043609263,0.0056592175
6.9907977E-4,-0.0032956619,0.0067244815
-3.6618466E-4,0.0020306604,0.0024634239
-3.6618466E-4,-0.001165133,-7.323693E-4
-0.0014314491,-0.010752513,-0.0060586915
-0.0014314491,-0.023535686,-0.010319749
-3.6618466E-4,-0.023535686,-0.011385013
-0.0014314491,-0.0118177775,-0.004993427
-3.6618466E-4,0.0073569827,0.0035286883
6.9907977E-4,0.01907489,0.0067244815
-3.6618466E-4,0.022270685,0.0067244815
-3.6618466E-4,0.012683305,0.0056592175
0.0028296087,-9.986854E-5,0.007789746
0.0017643442,0.0073569827,0.007789746
-3.6618466E-4,0.018009627,0.0067244815
-0.0014314491,0.014813834,3.3289514E-4
-3.6618466E-4,-0.0022303974,-0.00818922
-9.321064E-4,-0.02120542,-0.012450278
0.0011984225,-0.025466477,-0.010319749
0.0011984225,-0.008422247,-0.0039281626
1.3315806E-4,0.0064914552,0.004593953
-0.0019973707,0.016078835,0.012050804
1.3315806E-4,0.012883042,0.014181333
0.0011984225,0.010752513,0.012050804
0.0011984225,0.012883042,0.00885501
0.0011984225,0.0118177775,0.007789746
1.3315806E-4,0.008621984,0.0056592175
1.3315806E-4,0.001165133,0.0013981595
-9.321064E-4,-0.0073569827,-0.004993427
1.3315806E-4,-0.013748569,-0.0060586915
0.0022636869,-0.016944362,-0.0039281626
0.0011984225,-0.006291718,0.0035286883
1.3315806E-4,0.008621984,0.004593953
0.0011984225,0.013948306,0.0056592175
0.0011984225,0.012883042,0.007789746
0.0011984225,0.019274628,0.0067244815
-9.321064E-4,0.02673148,0.0035286883
-0.0019973707,0.018209364,0.0024634239
-0.0019973707,0.008621984,3.3289514E-4
1.3315806E-4,0.005426191,-7.323693E-4
1.3315806E-4,0.0075567197,3.3289514E-4
1.3315806E-4,0.012883042,0.0013981595
1.3315806E-4,0.016078835,3.3289514E-4
1.3315806E-4,0.021405157,-7.323693E-4
-9.321064E-4,0.022470422,3.3289514E-4
0.0022636869,0.02673148,0.007789746
0.0022636869,0.032057803,0.017377125
1.3315806E-4,0.04803677,0.015246597
-9.321064E-4,0.07040732,0.016311862
1.3315806E-4,0.08105996,0.022703448
0.0011984225,0.07892944,0.022703448
0.0033289513,0.06295047,0.023768712
0.0011984225,0.038449388,0.02057292
0.0022636869,0.0075567197,0.012050804
0.0022636869,-0.016944362,0.0013981595
1.3315806E-4,-0.026531743,-0.009254484
-0.0019973707,-0.029727535,-0.017776601
-0.0041278997,-0.039314914,-0.026298715
-0.0030626352,-0.053163353,-0.026298715
-9.321064E-4,-0.07020758,-0.023102922
-9.321064E-4,-0.08405602,-0.020972393
-9.321064E-4,-0.07659917,-0.022037657
1.3315806E-4,-0.075533904,-0.019907128
-0.0030626352,-0.077664435,-0.018841865
-0.0019973707,-0.079794966,-0.019907128
-0.0030626352,-0.077664435,-0.024168186
-0.0030626352,-0.0787297,-0.028429244
-0.0041278997,-0.079794966,-0.025233451
-0.0019973707,-0.07020758,-0.023102922
-0.0030626352,-0.048902296,-0.018841865
-0.0019973707,-0.022270685,-0.011385013
-9.321064E-4,-9.653959E-4,-0.0028628982
0.0033289513,0.013948306,0.004593953
0.0033289513,0.030992538,0.009920275
0.0022636869,0.04590624,0.010985539
0.0011984225,0.04803677,0.013116068
0.0022636869,0.039514653,0.010985539
0.0033289513,0.03418833,0.010985539
0.0022636869,0.03418833,0.009920275
1.3315806E-4,0.038449388,0.0067244815
-9.321064E-4,0.04164518,0.0024634239
-0.0019973707,0.037384123,0.0024634239
-9.321064E-4,0.020339893,0.004593953
0.0011984225,0.0075567197,0.007789746
0.0022636869,0.016078835,0.007789746
0.0011984225,0.022470422,0.0035286883
0.0011984225,0.017144099,0.0024634239
0.0033289513,0.0043609263,0.0035286883
0.0033289513,-0.0030959249,0.004593953
1.3315806E-4,-0.0030959249,3.3289514E-4
-9.321064E-4,-0.0020306604,-0.0028628982
-9.321064E-4,-0.0041611893,-0.00818922
-9.321064E-4,-0.012683305,-0.0060586915
1.3315806E-4,-0.013748569,-0.00818922
-0.0019973707,-0.010552776,-0.010319749
-0.0019973707,-0.008422247,-0.012450278
1.3315806E-4,-0.012683305,-0.015646072
-9.321064E-4,-0.014813834,-0.016711336
-9.321064E-4,-0.026531743,-0.015646072
1.3315806E-4,-0.028662272,-0.013515542
0.0011984225,-0.026531743,-0.011385013
0.0011984225,-0.031858064,-0.0060586915
1.3315806E-4,-0.0307928,-0.0060586915
0.0011984225,-0.026531743,-0.00818922
-0.0019973707,-0.03292333,-0.010319749
1.3315806E-4,-0.044641238,-0.007123956
0.0011984225,-0.045706503,-0.0060586915
1.3315806E-4,-0.04038018,-0.0028628982
-0.0019973707,-0.033988595,-0.0028628982
-9.321064E-4,-0.02120542,-7.323693E-4
0.0022636869,0.010752513,-7.323693E-4
1.3315806E-4,0.021405157,0.0013981595
-9.321064E-4,0.025666215,3.3289514E-4
-9.321064E-4,0.019274628,0.0035286883
0.0011984225,0.0022303974,0.0013981595
-9.321064E-4,9.986854E-5,-7.323693E-4
-9.321064E-4,0.0022303974,-0.0039281626
1.3315806E-4,0.009687249,-0.004993427
0.0022636869,0.0118177775,-0.0017976337
0.0011984225,0.0064914552,0.0056592175
-9.321064E-4,0.0075567197,0.0067244815
-9.321064E-4,0.0118177775,0.004593953
-0.0019973707,0.0064914552,3.3289514E-4
-0.0019973707,-0.006291718,3.3289514E-4
1.3315806E-4,-0.0116180405,-0.0028628982
0.0011984225,-0.010552776,-0.004993427
1.3315806E-4,-0.006291718,-0.0028628982
-9.321064E-4,-0.0052264538,3.3289514E-4
0.0011984225,-0.0020306604,-0.0017976337
0.0011984225,-0.0020306604,-0.0028628982
0.0011984225,-0.0073569827,3.3289514E-4
0.0011984225,-0.013748569,0.0013981595
0.0022636869,-0.009487512,0.0013981595
0.0011984225,-0.0020306604,0.0013981595
1.3315806E-4,-0.0030959249,3.3289514E-4
0.0011984225,-0.008422247,0.0024634239
0.0011984225,-0.018009627,0.0056592175
0.0011984225,-0.01907489,0.0035286883
0.0033289513,-0.01907489,0.0035286883
0.0022636869,-0.02120542,0.0056592175
0.0033289513,-0.02120542,0.0056592175
0.0033289513,-0.023335949,0.004593953
0.0011984225,-0.02120542,0.0024634239
0.0022636869,-0.025466477,3.3289514E-4
0.0033289513,-0.028662272,3.3289514E-4
0.0033289513,-0.024401214,0.004593953
0.0033289513,-0.009487512,0.004593953
0.0011984225,0.005426191,0.0013981595
1.3315806E-4,0.005426191,0.0013981595
0.0011984225,-0.0020306604,0.0024634239
0.0011984225,-0.0052264538,-0.0028628982
-9.321064E-4,0.001165133,-0.009254484
-9.321064E-4,-0.0052264538,-0.012450278
1.3315806E-4,-0.020140156,-0.0060586915
1.3315806E-4,-0.025466477,-7.323693E-4
1.3315806E-4,-0.014813834,-0.0028628982
-0.0030626352,9.986854E-5,-0.0028628982
-0.0019973707,0.001165133,-0.0028628982
0.0011984225,0.0032956619,-0.004993427
1.3315806E-4,0.0075567197,-0.0060586915
0.0011984225,0.0022303974,3.3289514E-4
0.0022636869,0.0022303974,0.0056592175
0.0022636869,0.010752513,0.013116068
0.0022636869,0.020339893,0.016311862
0.0011984225,0.017144099,0.009920275
0.0011984225,0.005426191,0.0035286883
0.0022636869,-0.013748569,-0.0017976337
0.0022636869,-0.022270685,-0.0060586915
0.0033289513,-0.015879098,-0.004993427
0.0011984225,0.0022303974,-0.00818922
1.3315806E-4,0.010752513,-0.00818922
-0.0019973707,0.005426191,-0.004993427
1.3315806E-4,-0.0030959249,-0.0028628982
0.0011984225,-0.0030959249,-0.0060586915
0.0011984225,-0.008422247,-0.004993427
0.0022636869,-0.014813834,-7.323693E-4
0.0022636869,-0.013748569,0.0013981595
0.0033289513,-9.653959E-4,0.0024634239
0.0011984225,0.0032956619,-0.0039281626
0.0011984225,-0.0052264538,-0.0060586915
0.0011984225,-0.013748569,-0.0017976337
0.0033289513,-0.013748569,0.0035286883
0.0033289513,-0.0030959249,0.004593953
0.0011984225,0.010752513,0.0035286883
1.3315806E-4,0.013948306,0.0067244815
0.0011984225,0.013948306,0.0056592175
0.0011984225,0.015013571,3.3289514E-4
-9.321064E-4,0.012883042,-0.00818922
-0.0019973707,0.010752513,-0.013515542
-0.0019973707,0.0043609263,-0.009254484
1.3315806E-4,9.986854E-5,-0.0028628982
1.3315806E-4,0.005426191,0.0024634239
-9.321064E-4,0.0075567197,0.0013981595
1.3315806E-4,-0.008422247,-0.007123956
1.3315806E-4,-0.043575972,-0.011385013
0.0022636869,-0.06914232,-0.022037657
0.004394216,-0.079794966,-0.020972393
0.00545948,-0.08192549,-0.016711336
0.008655273,-0.08086023,-0.0028628982
0.010785802,-0.043575972,0.009920275
0.007590009,0.0022303974,0.015246597
1.3315806E-4,0.039514653,0.00885501
-0.0019973707,0.040579915,0.0056592175
0.0022636869,0.022470422,0.009920275
0.0022636869,0.022470422,0.0013981595
-0.0030626352,0.029927272,-0.017776601
-0.005193164,0.036318857,-0.034820832
-0.009454221,0.037384123,-0.03695136
-0.008388957,0.036318857,-0.0326903
-0.005193164,0.056558885,-0.014580807
-0.005193164,0.086386286,0.013116068
-0.0062584286,0.102365255,0.038682416
-0.010519486,0.08851682,0.0599877
-0.01584581,0.013948306,0.0749014
-0.020106867,-0.12560134,0.09088037
0.008655273,-0.17566876,0.095141426
0.019307917,-0.064881265,0.05679191
0.0011984225,0.044840973,-7.323693E-4
-0.012650015,0.0799947,-0.04014715
-0.008388957,0.07253785,-0.034820832
-9.321064E-4,0.061885204,-0.024168186
-0.0041278997,0.069342054,-0.025233451
-0.007323693,0.0949084,-0.02736398
-0.007323693,0.0949084,-0.019907128
-0.0062584286,0.07253785,-0.009254484
-0.0041278997,0.05549362,-7.323693E-4
-0.005193164,0.04910203,0.0013981595
-0.009454221,0.04910203,-0.0039281626
-0.010519486,0.042710446,-0.0017976337
-0.012650015,0.013948306,-0.0028628982
-0.012650015,-0.0307928,-0.010319749
-0.005193164,-0.039314914,-0.017776601
-0.0041278997,-0.022270685,-0.023102922
-0.0062584286,-0.039314914,-0.03695136
-0.007323693,-0.04783703,-0.051865064
-0.0041278997,-0.043575972,-0.052930325
1.3315806E-4,-0.027597006,-0.03908189
0.0011984225,0.016078835,-0.012450278
-9.321064E-4,0.07786417,0.007789746
-0.0019973707,0.10343052,0.013116068
-0.0019973707,0.08851682,0.017377125
0.0011984225,0.065081,0.019507654
0.0011984225,0.04590624,0.016311862
-0.0019973707,0.044840973,0.00885501
-0.0030626352,0.04164518,0.0013981595
-0.0019973707,0.025666215,0.0024634239
0.0065247444,0.013948306,0.010985539
0.0065247444,0.025666215,0.016311862
0.007590009,0.035253596,0.019507654
0.00545948,0.04164518,0.024833977
0.0065247444,0.033123065,0.029095035
0.007590009,0.025666215,0.024833977
0.0065247444,0.028862009,0.00885501
0.004394216,0.018209364,-7.323693E-4
0.0033289513,-0.0041611893,-7.323693E-4
0.0033289513,-0.018009627,0.0067244815
0.004394216,-0.0041611893,0.009920275
0.0033289513,0.020339893,0.00885501
0.0022636869,0.03418833,0.00885501
0.0022636869,0.035253596,0.013116068
0.0022636869,0.032057803,0.01844239
0.0011984225,0.050167296,0.013116068
-0.0019973707,0.05336309,0.0024634239
-0.0019973707,0.02673148,-0.0017976337
-9.321064E-4,0.0022303974,3.3289514E-4
0.0011984225,-0.0041611893,-0.0017976337
1.3315806E-4,0.005426191,-0.00818922
0.0011984225,9.986854E-5,-0.0028628982
0.0022636869,-0.0116180405,0.0056592175
0.0011984225,-0.025466477,3.3289514E-4
0.0033289513,-0.03292333,-0.010319749
0.008655273,-0.01907489,-0.019907128
0.011851067,0.0022303974,-0.012450278
0.010785802,0.021405157,-0.004993427
0.008655273,0.035253596,0.0035286883
0.009720538,0.020339893,0.007789746
0.0065247444,-0.0041611893,0.007789746
0.0065247444,-0.014813834,3.3289514E-4
0.008655273,-0.01907489,-0.007123956
0.004394216,-0.013748569,-0.011385013
0.0022636869,-0.0052264538,-0.012450278
0.0022636869,-0.0030959249,-0.007123956
0.0033289513,-0.0052264538,-7.323693E-4
0.00545948,0.0043609263,0.00885501
0.00545948,0.020339893,0.014181333
0.0011984225,0.033123065,0.014181333
1.3315806E-4,0.025666215,0.009920275
-9.321064E-4,-9.653959E-4,-0.0017976337
-9.321064E-4,-0.03292333,-0.010319749
1.3315806E-4,-0.052098088,-0.017776601
0.0022636869,-0.04996756,-0.022037657
1.3315806E-4,-0.035053857,-0.025233451
-0.0019973707,-0.020140156,-0.030559773
-0.0030626352,-0.013748569,-0.03695136
-0.005193164,-0.01907489,-0.028429244
-0.005193164,-0.035053857,-0.010319749
-0.0062584286,-0.04996756,-7.323693E-4
-0.005193164,-0.051032823,0.0067244815
-0.0062584286,-0.035053857,-0.0017976337
-0.010519486,-0.0307928,-0.023102922
-0.01158475,-0.048902296,-0.03695136
-0.010519486,-0.08086023,-0.04440821
-0.010519486,-0.107491836,-0.043342948
-0.008388957,-0.0968392,-0.03908189
-0.007323693,-0.05742441,-0.028429244
-0.0062584286,-0.01907489,-0.023102922
-0.009454221,0.0064914552,-0.020972393
-0.007323693,0.018209364,-0.015646072
-0.005193164,0.030992538,-0.009254484
-0.008388957,0.04803677,-0.0028628982
-0.010519486,0.06721153,-0.00818922
-0.007323693,0.07892944,-0.0028628982
-0.007323693,0.087451555,0.0035286883
-0.007323693,0.10662631,0.012050804
-0.0062584286,0.117278956,0.00885501
-0.005193164,0.12367054,0.013116068
-0.0030626352,0.11834422,0.01844239
-9.321064E-4,0.11088737,0.022703448
0.0022636869,0.098104194,0.030160299
0.0022636869,0.104495786,0.03442136
0.0022636869,0.11408316,0.02589924
-9.321064E-4,0.115148425,0.022703448
-0.0019973707,0.10556105,0.01844239
-9.321064E-4,0.09703893,0.010985539
-9.321064E-4,0.08958208,0.007789746
-9.321064E-4,0.08105996,0.0056592175
1.3315806E-4,0.07466838,0.00885501
0.0022636869,0.086386286,0.013116068
0.0033289513,0.098104194,0.017377125
0.004394216,0.104495786,0.026964506
0.004394216,0.102365255,0.036551885
0.00545948,0.09277787,0.040812943
0.0033289513,0.09064735,0.03442136
0.0022636869,0.071472585,0.022703448
0.0011984225,0.032057803,0.004593953
0.0011984225,-0.012683305,-0.011385013
-9.321064E-4,-0.045706503,-0.024168186
-0.0019973707,-0.062750734,-0.047604006
-0.0019973707,-0.07233811,-0.059321914
-9.321064E-4,-0.08086023,-0.052930325
-0.0030626352,-0.07659917,-0.038016625
-9.321064E-4,-0.06594653,-0.019907128
1.3315806E-4,-0.041445445,-0.015646072
1.3315806E-4,-0.031858064,-0.012450278
-0.0019973707,-0.03824965,-0.010319749
-0.0041278997,-0.052098088,-0.015646072
-0.0062584286,-0.06807706,-0.015646072
-0.007323693,-0.07233811,-0.012450278
-0.009454221,-0.04996756,-0.0060586915
-0.010519486,-0.020140156,-0.0060586915
-0.009454221,-0.0116180405,-0.0039281626
-0.005193164,-0.023335949,-0.0039281626
0.0022636869,-0.041445445,-0.0028628982
0.0033289513,-0.04996756,0.0035286883
0.004394216,-0.043575972,0.010985539
0.004394216,-0.010552776,0.013116068
0.00545948,0.017144099,0.010985539
0.0033289513,0.021405157,0.009920275
0.0022636869,0.009687249,0.00885501
0.004394216,-0.0020306604,0.0067244815
0.0033289513,-9.653959E-4,3.3289514E-4
1.3315806E-4,-0.0020306604,-0.0028628982
0.0011984225,-0.0020306604,-0.0039281626
1.3315806E-4,-9.653959E-4,-0.0060586915
0.0011984225,-0.008422247,-0.0039281626
0.0033289513,-0.006291718,0.0024634239
0.0011984225,0.013948306,0.009920275
-0.0030626352,0.024600951,0.014181333
-0.0041278997,0.025666215,0.013116068
-0.0030626352,0.022470422,0.007789746
-9.321064E-4,0.009687249,3.3289514E-4
0.0011984225,9.986854E-5,-0.0028628982
0.0022636869,9.986854E-5,-0.0028628982
0.0011984225,0.005426191,-7.323693E-4
0.0022636869,0.013948306,0.0013981595
0.0022636869,0.012883042,-0.0017976337
0.0022636869,0.005426191,-0.0017976337
0.0011984225,0.0032956619,0.004593953
0.0011984225,0.016078835,0.007789746
0.0011984225,0.032057803,0.013116068
0.0011984225,0.046971504,0.019507654
0.0011984225,0.04910203,0.023768712
0.004394216,0.039514653,0.03548662
0.010785802,0.030992538,0.07170561
0.01504686,0.025666215,0.14307833
-9.321064E-4,0.05123256,0.24534371
-0.010519486,0.09703893,0.32204276
-0.007323693,0.18226008,0.34654385
1.3315806E-4,0.24937174,0.36358806
0.009720538,0.26108965,0.37530598
0.025699504,0.25576332,0.3859586
0.029960562,0.2813297,0.37637123
0.019307917,0.3495066,0.34334803
1.3315806E-4,0.40170455,0.33908698
-0.04460795,0.38785613,0.36997965
-0.11278487,0.415553,0.39128494
-0.19374497,0.56469,0.38169757
-0.26937875,0.66589016,0.3657186
-0.32264197,0.70104384,0.34015223
-0.3514041,0.6914565,0.33695644
-0.34501252,0.6254101,0.34228277
-0.30453247,0.600909,0.32843435
-0.26298717,0.5412542,0.37850177
-0.22357237,0.31115708,0.4136555
-0.22889869,0.21741381,0.40939444
-0.24700819,0.21847908,0.43069974
-0.27257454,0.17160743,0.488224
-0.30559772,0.05336309,0.52870405
-0.36099148,-0.119209744,0.5702494
-0.41638523,-0.44837645,0.5031377
-0.46325687,-0.44198486,0.48609346
-0.44621265,-0.2736731,0.55533564
-0.40999365,-0.20016985,0.57664096
-0.3876231,-0.2225404,0.5958157
-0.3844273,-0.3237405,0.62564313
-0.40999365,-0.44518065,0.6448179
-0.43982106,-0.48139966,0.67358
-0.48456216,-0.46648595,0.6746453
-0.5548696,-0.5314671,0.6448179
-0.65820026,-0.7668905,0.60753363
-0.7924236,-1.0342718,0.58516306
-0.951148,-1.1397331,0.62777364
-1.0992197,-1.0481204,0.709799
-1.2089419,-0.8925917,0.746018
-1.2771189,-0.7945874,0.7492138
-1.3080115,-0.7935221,0.746018
-1.3005548,-0.80524004,0.7066032
-1.2707273,-0.692322,0.65760106
-1.2100072,-0.57088184,0.64375263
-1.1546135,-0.4920523,0.6448179
-1.0885671,-0.44944173,0.64162207
-1.039565,-0.35676372,0.60540307
-1.0598049,-0.14584136,0.57664096
-1.1088071,0.03418833,0.5436177
-1.1492871,0.17799903,0.45946187
-1.1673967,0.22700119,0.34334803
-1.1844409,0.26641598,0.2006026
-1.1642009,0.2781339,0.082358256
-1.156744,0.3345929,-0.014580807
-1.1173292,0.39211717,-0.12430304
-1.0715228,0.42620564,-0.27130952
-1.0587397,0.3974435,-0.41725075
-1.0651313,0.27174228,-0.5568004
-1.1066766,0.16947691,-0.68995845
-1.161005,0.10556105,-0.77304906
-1.1993545,0.12580107,-0.86040074
-1.2153336,0.27174228,-0.96905774
-1.192963,0.48479518,-1.0681273
-1.1098723,0.6882607,-1.1874369
-0.9894975,0.86402935,-1.320595
-0.86805737,0.94711995,-1.4462962
-0.7966846,0.92048836,-1.5357784
-0.7711183,0.74365443,-1.5666711
-0.7849667,0.55510265,-1.5741279
-0.84675205,0.52740574,-1.5645405
-0.8957542,0.6978481,-1.5315174
-0.9223858,0.94498944,-1.5613447
-0.9468869,1.2603077,-1.6167386
-0.9426259,1.5138407,-1.6540228
-0.9064069,1.6395419,-1.7232649
-0.8659268,1.6917398,-1.7903767
-0.8755142,1.729024,-1.799964
-0.9532785,1.6970661,-1.7413745
-1.0544786,1.5894744,-1.5890416
-1.0875018,1.4041184,-1.3301824
-1.0203902,1.2677646,-1.0478873
-0.951148,1.3050488,-0.8263123
-0.9298427,1.4286195,-0.65587
-0.92558163,1.5564512,-0.5152551
-0.84462154,1.6246281,-0.39061916
-0.6603308,1.5255585,-0.34694332
-0.4259726,1.3519205,-0.4577308
-0.23209448,1.2933309,-0.62710786
-0.1149154,1.2741561,-0.748548
-0.058456384,1.1814781,-0.8444218
-0.0371511,0.9662947,-0.91046816
-0.013715279,0.621149,-0.91792506
0.016112125,0.18545587,-0.86785764
0.039547943,-0.21827933,-0.72298163
0.02463424,-0.5517071,-0.5237772
-0.0520648,-0.7913916,-0.3203117
-0.14580807,-0.87980855,-0.11578093
-0.24700819,-0.8361327,0.06850982
-0.35353464,-0.73280203,0.22403842
-0.507998,-0.68593043,0.3859586
-0.7263772,-0.75836843,0.6224473
-0.79988045,-0.92987597,0.8706539
-0.59002334,-1.1940615,0.89195925
-0.19161443,-1.5232283,0.6341652
0.14500912,-1.4326808,0.4040681
0.265384,-1.0033792,0.38276282
0.24194819,-0.6134924,0.4647882
0.18442391,-0.41002694,0.5745104
0.14181332,-0.42387536,0.70873374
0.15353124,-0.55277234,0.85787076
0.2174471,-0.67314726,0.98996353
0.30479878,-0.8137621,1.0794457
0.41025996,-0.97461706,1.108208
0.50080746,-1.0981878,1.080511
0.5402222,-1.1450593,1.0315088
0.5402222,-1.1802131,0.98357195
0.5306348,-1.2782174,0.91432977
0.5221127,-1.3804828,0.8163254
0.51572114,-1.4156365,0.71192956
0.5050685,-1.3975271,0.61818624
0.4720453,-1.357047,0.5414872
0.41025996,-1.2760869,0.49674612
0.3165167,-1.1312109,0.48715875
0.21531658,-0.95863813,0.52018195
0.13222595,-0.85530746,0.580902
0.071505874,-0.8702212,0.6501442
0.057657436,-0.97035605,0.71725583
0.042743735,-1.1610384,0.77371484
-0.04780374,-1.4561166,0.96333194
-0.108523816,-1.8747655,1.3436314
-0.08828379,-2.2657175,1.6632106
1.3315806E-4,-2.3892882,1.7004949
0.14394386,-2.2848923,1.4938337
0.2920156,-2.0856879,1.1433616
0.36551887,-1.8481339,0.8152602
0.3527357,-1.6606474,0.67784107
0.32503882,-1.6926053,0.6405568
0.33888724,-1.8992666,0.59475046
0.4177168,-2.0952752,0.60540307
0.5327654,-2.2081933,0.6448179
0.6126602,-2.234825,0.6501442
0.652075,-2.1645174,0.62564313
0.6701845,-1.8811572,0.58729357
0.60839915,-1.3357418,0.5574662
0.4922853,-0.76476,0.57131463
0.38575888,-0.4441154,0.5936852
0.34208304,-0.5751429,0.5723799
0.36019254,-0.8542422,0.48396295
0.37723675,-0.99698764,0.37850177
0.37084517,-0.92987597,0.27730164
0.31225562,-0.7189536,0.15479624
0.16631441,-0.39830902,0.07277088
-0.03289004,-0.05955494,0.0599877
-0.2257029,0.24937174,0.069575086
-0.35353464,0.5412542,0.054661382
-0.40147153,0.80011344,-0.009254484
-0.46964845,0.951381,-0.097671434
-0.54102117,1.1271496,-0.12004199
-0.54102117,1.3348762,-0.059321914
-0.41851577,1.358312,-0.10193249
-0.20333235,1.0472548,-0.32776853
-0.042477418,0.7202186,-0.68037105
-0.025433188,0.73087126,-0.9168598
-0.092544846,1.0653642,-0.8955545
-0.17670074,1.579887,-0.8145944
-0.23742081,1.9580559,-0.75067854
-0.24274713,2.0486033,-0.72830796
-0.19374497,1.9921443,-0.7858322
-0.16072176,1.9697738,-0.8646618
-0.14154701,1.889879,-0.93603456
-0.092544846,1.785483,-1.0404304
-0.019041602,1.801462,-1.1426958
0.06724482,1.857921,-1.2108728
0.17057547,1.8163757,-1.227917
0.265384,1.6182365,-1.1980896
0.34634408,1.3678994,-1.1576096
0.40067258,1.2208929,-1.0755842
0.4123905,1.1836087,-0.9434914
0.39534625,1.1452591,-0.78902805
0.3516704,1.1346065,-0.6377605
0.28136298,1.1676297,-0.4726445
0.21212079,1.1793476,-0.3139201
0.1545965,1.1718907,-0.20526314
0.04807006,1.1409981,-0.10299776
-0.03289004,1.0461895,0.07170561
0.013981596,0.84485453,0.1920805
0.10879013,0.6893259,0.08768458
0.2025334,0.7053049,-0.12004199
0.22277342,0.8246145,-0.2755706
0.1876197,1.0035789,-0.33416015
0.22703448,1.132476,-0.30859378
0.3729757,1.2038487,-0.32776853
0.5977465,1.2784172,-0.38529283
0.86086684,1.3657689,-0.45666555
1.0962902,1.4392722,-0.5024719
1.2784505,1.4222279,-0.48968875
1.4414359,1.3370067,-0.45986134
1.5756593,1.2379371,-0.42044654
1.6864468,1.091996,-0.33096436
1.7610153,0.89492196,-0.23082949
1.816409,0.7521766,-0.16478309
1.8089522,0.693587,-0.1317599
1.743971,0.6424543,-0.11897672
1.6097478,0.5593637,-0.096606165
1.4190654,0.4784036,-0.051865064
1.2219914,0.39211717,-0.012450278
1.0366354,0.27493808,0.00885501
0.86512786,0.17693377,0.022703448
0.67338026,0.073603116,0.036551885
0.35912728,-0.10962237,0.11005513
0.010785802,-0.3897869,0.30286798
-0.1745702,-1.0545119,0.4456134
-0.17563547,-2.198606,0.5340304
-0.03075951,-3.7421741,0.50846404
0.17164072,-5.5009255,0.34015223
0.3974768,-6.654607,0.08874984
0.63290024,-6.2945476,-0.079561934
0.8129299,-4.399442,-0.10299776
0.8672584,-1.8129802,-0.06358297
0.9226521,0.34844133,-0.06358297
0.98656803,1.4243584,-0.09234511
1.0355701,1.4552511,-0.07636614
1.054745,1.0184927,-0.04653874
1.0632671,0.50929624,-0.030559773
1.0366354,0.1460411,-0.024168186
0.98443747,-0.06594653,0.0024634239
0.930109,-0.34611106,0.051465586
0.8981511,-0.7370631,0.108989865
0.8704542,-1.119493,0.18781944
0.8502142,-1.3964618,0.28901955
0.85127944,-1.6169715,0.3891544
0.87365,-1.6670389,0.45626608
0.90134686,-1.6936706,0.48396295
0.92797846,-1.6968664,0.51059455
0.92371744,-1.5839484,0.56705356
0.85980153,-1.4188323,0.5691841
0.7692541,-1.2089753,0.5340304
0.6659234,-0.95863813,0.50207245
0.5572665,-0.71788836,0.45093974
0.44860947,-0.6965831,0.3859586
0.36871466,-1.047055,0.33482593
0.30586404,-1.2792827,0.3326954
0.26325348,-1.3602428,0.3689144
0.24620923,-1.3378723,0.4136555
0.22596921,-1.2483901,0.4637229
0.19401129,-1.1280152,0.5073988
0.15353124,-1.1024488,0.5329651
0.08215852,-1.1525162,0.5425525
-0.007323693,-1.1706257,0.5414872
-0.10958908,-1.0502509,0.5276388
-0.21291973,-0.83293694,0.5031377
-0.30559772,-0.579404,0.47757137
-0.38655782,-0.38552585,0.4498745
-0.45793054,-0.35356793,0.43709132
-0.5335643,-0.38019952,0.4253734
-0.62837285,-0.33971947,0.41259024
-0.74129087,-0.16714665,0.42324287
-0.87657946,0.14817162,0.4669187
-1.0406302,0.6147574,0.55533564
-1.2355735,1.0994527,0.68636316
-1.4219948,1.5426028,0.8120644
-1.5508919,2.0219717,0.86426234
-1.6084161,2.5205154,0.8536097
-1.6425046,2.731438,0.80780333
-1.6819193,2.599345,0.7332348
-1.6915067,2.3021362,0.68210214
-1.620134,1.9037274,0.6490789
-1.507216,1.3487246,0.6064684
-1.38258,0.69891334,0.5723799
-1.2483567,0.12473581,0.5723799
-1.1183945,-0.3088268,0.60540307
-1.027847,-0.6326672,0.67358
-1.0065417,-0.9192233,0.74282223
-1.027847,-1.0459898,0.7311043
-1.0171944,-0.90750545,0.64588314
-0.9894975,-0.5762082,0.5500093
-0.95967007,-0.18206035,0.43389553
-0.9234511,0.21634854,0.27730164
-0.8637963,0.46988147,0.11538146
-0.7945541,0.52421,0.015246597
-0.72531193,0.46135935,0.0035286883
-0.6518087,0.32926658,0.040812943
-0.5729791,0.17373797,0.082358256
-0.50267166,0.057624146,0.11857725
-0.46432212,0.061885204,0.14627412
-0.4536695,0.16628112,0.18675417
-0.45686528,0.29624337,0.22723421
-0.4685832,0.39957404,0.2549311
-0.48775795,0.46668568,0.2762364
-0.50906324,0.5380584,0.30073747
-0.52717274,0.621149,0.33695644
-0.5367601,0.7063702,0.36465332
-0.54102117,0.7809387,0.36358806
-0.54741275,0.8256798,0.34654385
-0.55913067,0.8416588,0.31671643
-0.54528224,0.8693556,0.25280055
-0.50693274,0.85444194,0.17184047
-0.4707137,0.75750285,0.10046775
-0.44940844,0.5987785,0.06850982
-0.44940844,0.4304667,0.0749014
-0.4707137,0.3622898,0.10153302
-0.50906324,0.42300984,0.14307833
-0.55913067,0.58493006,0.18675417
-0.60813284,0.8150272,0.20699419
-0.63689494,1.0941265,0.1824931
-0.6273076,1.3529857,0.1079246
-0.57404435,1.5276891,0.033356093
-0.48775795,1.5298196,-0.02949451
-0.4025368,1.39027,-0.12536831
-0.3545999,1.2656341,-0.24148212
-0.31625038,1.2901351,-0.3650528
-0.26937875,1.3881394,-0.5291035
-0.22996396,1.4627079,-0.71659005
-0.19374497,1.4904048,-0.88383657
-0.15006913,1.4690995,-0.9946241
-0.1000017,1.3955963,-0.9946241
-0.056325857,1.2943962,-0.93816507
-0.033955302,1.2421982,-0.89981556
-0.041412156,1.2123708,-0.8731839
-0.076565884,1.2698951,-0.8593355
-0.13835122,1.4286195,-0.8582702
-0.21505025,1.6331502,-0.84761757
-0.29601035,1.7748305,-0.81885546
-0.37910098,1.89414,-0.7581354
-0.4685832,2.051799,-0.67397946
-0.55593485,2.2137194,-0.5940847
-0.620916,2.328768,-0.547213
-0.68057084,2.3724437,-0.51632035
-0.7285077,2.333029,-0.44175184
-0.7348993,2.15513,-0.32670328
-0.6741792,1.8227673,-0.21485052
-0.54954326,1.435011,-0.15199992
-0.3908189,1.1133012,-0.16371782
-0.24913871,0.86402935,-0.21485052
-0.15219966,0.63393223,-0.25533056
-0.07976168,0.4634899,-0.2542653
-0.01584581,0.2802644,-0.2393516
0.044874266,0.046971504,-0.25213477
0.08322378,-0.23532356,-0.2542653
0.088550106,-0.470747,-0.2095242
0.06298376,-0.5549029,-0.13495569
0.019307917,-0.41961432,-0.024168186
-0.033955302,-0.25449833,0.11431619
-0.07869641,-0.043575972,0.24534371
-0.122372255,0.14923689,0.38808915
-0.15326492,0.2621549,0.5542704
-0.16072176,0.28452548,0.7034074
-0.16072176,0.4123572,0.8291086
-0.16924389,0.52101415,0.94522244
-0.15113439,0.50290465,1.0293783
-0.11811119,0.5859953,1.0581405
-0.15006913,1.0461895,1.0932941
-0.27577034,1.5894744,1.1721238
-0.34394726,1.9143801,1.1710585
-0.2853577,1.8067883,1.028313
-0.13941649,1.3668342,0.80141175
0.023568975,0.82035345,0.5595967
0.15885755,0.40276983,0.3838281
0.2355566,0.19291273,0.25919214
0.26751453,0.033123065,0.17610152
0.30479878,-0.23319304,0.113250926
0.31864724,-0.599644,0.04187821
0.2920156,-0.89578754,-0.015646072
0.27177557,-1.074752,-0.041212417
0.25473136,-1.1418636,-0.1317599
0.25260082,-1.0257498,-0.24041687
0.25260082,-0.7636947,-0.29474536
0.24088292,-0.522945,-0.30433273
0.20040287,-0.3833953,-0.27450532
0.1247691,-0.3248058,-0.21698105
0.023568975,-0.2672815,-0.09980196
-0.090414315,-0.23532356,0.07703193
-0.177766,-0.31734893,0.2730406
-0.21185446,-0.5218797,0.46265766
-0.19907129,-0.7679558,0.6224473
-0.15646072,-1.0246845,0.7556054
-0.10745855,-1.3218933,0.8514792
-0.11065434,-1.6414726,0.87384975
-0.17563547,-1.8673086,0.8344349
-0.28429243,-1.9386814,0.7279085
-0.44195157,-1.8662434,0.5777062
-0.6422213,-1.7160411,0.4733103
-0.84036046,-1.5242935,0.41791654
-0.96393114,-1.2036489,0.37637123
-0.9649964,-0.7818042,0.35932702
-0.8520784,-0.35250264,0.36145753
-0.6699182,-0.033988595,0.35506594
-0.44940844,0.17480324,0.3870239
-0.21291973,0.1098221,0.49461558
0.02676477,-0.33758897,0.6501442
0.24514398,-1.0545119,0.79928124
0.4091947,-1.8470687,0.8631971
0.502938,-2.447878,0.8205865
0.5018727,-2.7514782,0.76732326
0.4336958,-2.8675919,0.76306224
0.38469362,-2.9474869,0.76306224
0.39854205,-2.984771,0.6874285
0.46458846,-2.9581394,0.44454816
0.5370264,-2.8686574,0.1260341
0.5647233,-2.2859576,-0.06997456
0.4571316,-1.3836787,-0.034820832
0.32503882,-0.8499811,0.11964251
0.265384,-0.86169904,0.15053518
0.2557966,-1.1141667,0.1441436
0.2621882,-1.3282849,0.22084263
0.24833977,-1.4603777,0.29754168
0.18016285,-1.4582472,0.3145859
0.06085323,-1.2707605,0.3092596
-0.08615326,-0.8840696,0.29860693
-0.23955134,-0.3269363,0.27410585
-0.36312202,0.22593592,0.24214792
-0.41851577,0.59558266,0.19527629
-0.39721048,0.7361976,0.11005513
-0.34607777,0.70423967,-0.0060586915
-0.3130546,0.60197425,-0.12004199
-0.31625038,0.52527523,-0.2212421
-0.3545999,0.5465805,-0.32137695
-0.40360206,0.66482484,-0.39914125
-0.43875578,0.8576377,-0.43216446
-0.41958103,1.0429938,-0.42364234
-0.33862093,1.0994527,-0.40659812
-0.27470505,1.0632337,-0.43216446
-0.32370722,1.1601728,-0.38209704
-0.36312202,1.3615078,-0.13282515
-0.24168187,1.4073142,0.108989865
0.007590009,1.2826782,0.040812943
0.19401129,1.1591076,-0.31498536
0.20466393,1.2933309,-0.64947844
0.101333275,1.6299545,-0.6910237
0.016112125,1.9026622,-0.55893093
0.012916331,1.9953401,-0.49608034
0.08961537,1.9335548,-0.54614776
0.1908155,1.7311546,-0.67184895
0.27497137,1.4275542,-0.8241818
0.30479878,1.2326108,-0.95414406
0.28455877,1.1889349,-1.0351042
0.25153556,1.1974571,-1.05854
0.23981765,1.1878697,-1.05854
0.25153556,1.1409981,-1.0425609
0.28775457,1.0493853,-1.0212557
0.337822,0.90877044,-1.0042114
0.38682413,0.7425892,-0.9935588
0.4273042,0.5859953,-0.9882325
0.4603274,0.45922884,-0.97757983
0.47311056,0.34204975,-0.94455665
0.46245793,0.23126225,-0.87851024
0.4336958,0.12899686,-0.77091855
0.40067258,0.033123065,-0.6462826
0.37084517,-0.05742441,-0.52590775
0.32610407,-0.17353824,-0.39061916
0.265384,-0.26941204,-0.22976422
0.20785972,-0.29923943,-0.07636614
0.15353124,-0.3280016,0.021638183
0.071505874,-0.378069,0.13029516
-0.014780544,-0.43026695,0.3508049
-0.033955302,-0.5250755,0.52231246
0.02463424,-0.65290725,0.51059455
0.06937534,-0.7551726,0.4285692
0.027830033,-0.7636947,0.467984
-0.06378271,-0.73599786,0.70234215
-0.14687334,-0.77860844,0.99315935
-0.18522285,-0.8947222,1.2381701
-0.17989653,-1.0097708,1.4192652
-0.16498283,-0.99485713,1.487442
-0.18735339,-0.8808738,1.4650714
-0.27790084,-0.75410736,1.415004
-0.41318944,-0.64331985,1.3660018
-0.54528224,-0.5549029,1.3287176
-0.6315687,-0.49418283,1.302086
-0.6635266,-0.53253233,1.257345
-0.61665493,-0.73599786,1.1518837
-0.5399559,-0.81695795,0.9761151
-0.50693274,-0.68166935,0.75347483
-0.49947587,-0.50163966,0.5340304
-0.49841058,-0.45476803,0.33376065
-0.48775795,-0.56022924,0.16118783
-0.46964845,-0.68166935,0.07170561
-0.45473474,-0.70936626,0.09727196
-0.43662527,-0.67314726,0.16012256
-0.40999365,-0.6081661,0.1707752
-0.4025368,-0.50377023,0.14307833
-0.42490736,-0.32054472,0.15160045
-0.39721048,-0.09896972,0.20273313
-0.26298717,0.087451555,0.1526657
-0.04460795,0.19823906,-0.06464823
0.19401129,0.21315275,-0.38742337
0.3516704,0.18545587,-0.7070027
0.38256308,0.24404542,-0.8625313
0.3761715,0.45177197,-0.8124639
0.4091947,0.729806,-0.7240469
0.51572114,0.81822294,-0.6910237
0.67124975,0.7361976,-0.7251122
0.80014676,0.50077415,-0.8401607
0.89282477,0.15562847,-0.99568933
0.9482185,-0.122405544,-1.1256516
0.9695238,-0.23638883,-1.2513528
0.9727196,-0.2672815,-1.3695972
0.96632797,-0.25769413,-1.4409698
0.9482185,-0.22147514,-1.4462962
0.91093427,-0.19590878,-1.3994246
0.8555405,-0.1895172,-1.3163339
0.7873636,-0.18419088,-1.1959591
0.7053382,-0.16501611,-1.0372347
0.60626864,-0.14264557,-0.841226
0.48482847,-0.15542874,-0.60047626
0.3399525,-0.19164772,-0.32244223
0.18335864,-0.25769413,-0.00818922
0.01504686,-0.34611106,0.33056486
-0.1628523,-0.41002694,0.6650579
-0.37057886,-0.47607332,1.0474879
-0.600676,-0.5751429,1.5822506
-0.75407404,-0.68166935,2.1020997
-0.7562046,-0.71469253,2.2949126
-0.6603308,-0.6262756,2.1415143
-0.57724017,-0.37913427,1.7739981
-0.57510966,-0.043575972,1.4256567
-0.61026335,0.20889169,1.2967597
-0.5942844,0.22700119,1.2679976
-0.49308428,-0.035053857,1.132709
-0.38016623,-0.4260059,0.9047424
-0.3034672,-0.7881958,0.6714495
-0.27577034,-0.9490507,0.45093974
-0.28429243,-1.0214887,0.3081943
-0.2853577,-1.1493205,0.21764684
-0.27790084,-1.0683603,0.13988253
-0.3034672,-0.62521034,0.13349095
-0.36099148,-0.18632141,0.21232052
-0.42277682,0.057624146,0.30712906
-0.46645266,0.115148425,0.35719648
-0.48136637,0.07679891,0.3721102
-0.4834969,0.027796743,0.36039227
-0.49734533,0.087451555,0.33376065
-0.50480217,0.286656,0.31991223
-0.47284424,0.5135573,0.31884697
-0.3876231,0.637128,0.2943459
-0.26405242,0.61582273,0.20592894
-0.14048174,0.48479518,0.04933506
-0.06378271,0.2983739,-0.11897672
-0.024367923,0.20995696,-0.22869895
0.057657436,0.21315275,-0.26278743
0.19401129,0.22806646,-0.32776853
0.36338833,0.2813297,-0.49608034
0.4965464,0.359094,-0.7251122
0.5327654,0.48372993,-0.96053565
0.46991476,0.7777429,-1.0713232
0.37723675,1.2113055,-1.0148641
0.32716933,1.5489943,-0.893424
0.33569145,1.6469986,-0.80713755
0.36338833,1.6917398,-0.7602659
0.40173784,1.3817478,-0.68995845
0.45180526,0.81822294,-0.6942195
0.50080746,0.40276983,-0.7315038
0.543418,0.30583075,-0.7677228
0.5711149,0.37826875,-0.80713755
0.579637,0.44964147,-0.81885546
0.5689844,0.4539025,-0.8220512
0.54235274,0.37187716,-0.8422913
0.5125253,0.23765384,-0.84761757
0.48056743,0.100234725,-0.8390955
0.43795684,0.0043609263,-0.8103333
0.38788942,-0.041445445,-0.7219164
0.32290828,-0.043575972,-0.54401726
0.2557966,-0.053163353,-0.29261482
0.20146814,-0.10429604,-0.031625036
0.14287859,-0.20549616,0.19101523
0.039547943,-0.36741635,0.46052712
-0.1149154,-0.5165534,0.86639285
-0.23955134,-0.599644,1.1657321
-0.27470505,-0.5964482,1.1817112
-0.2523345,-0.522945,1.0112689
-0.23102923,-0.35463318,0.7076685
-0.22783343,-0.21401829,0.4072639
-0.24274713,-0.19164772,0.30606377
-0.22357237,-0.3152184,0.38169757
-0.16711336,-0.5953829,0.47437558
-0.10745855,-0.9192233,0.5457483
-0.08828379,-1.110971,0.59155464
-0.1149154,-1.1045793,0.5617272
-0.15752597,-0.9320065,0.4818324
-0.18948391,-0.6848652,0.42111236
-0.20865867,-0.4260059,0.35293543
-0.23102923,-0.16608138,0.27836692
-0.23315975,-0.023335949,0.25280055
-0.22037658,-0.008422247,0.22723421
-0.21824604,0.052297827,0.22510369
-0.24168187,0.193978,0.25812688
-0.25659558,0.22274013,0.29541114
-0.24807346,0.1460411,0.28582376
-0.23422502,0.1641506,0.22403842
-0.23955134,0.28239495,0.19527629
-0.2555303,0.39105192,0.21764684
-0.2555303,0.40596563,0.25812688
-0.23635554,0.3377887,0.266649
-0.22037658,0.23658857,0.24427845
-0.213985,0.16521585,0.26132268
-0.1745702,0.14071478,0.2996722
-0.108523816,0.13858424,0.25386584
-0.03075951,0.1609548,0.08768458
0.044874266,0.23019698,-0.18289259
0.08002799,0.3612245,-0.5216467
0.04167847,0.53273207,-0.7741144
-0.012650015,0.69891334,-0.8039417
-0.02330266,0.81822294,-0.69848055
0.020373182,0.8150272,-0.56425726
0.08322378,0.7085007,-0.45346975
0.13435647,0.4954478,-0.40340233
0.15672703,0.20889169,-0.41085917
0.14074807,0.13751899,-0.43003392
0.09387643,0.22700119,-0.4524045
0.039547943,0.40170455,-0.49288455
-0.0062584286,0.61369216,-0.5386909
-0.031824775,0.81183136,-0.59514993
-0.042477418,0.9279452,-0.64202154
-0.046738476,0.98333895,-0.6526742
-0.045673214,0.9907958,-0.6409563
-0.041412156,0.9609684,-0.6228468
-0.03289004,0.9183578,-0.5844973
-0.019041602,0.8895957,-0.50779825
0.009720538,0.84805036,-0.38422757
0.040613208,0.7159576,-0.22869895
0.056592174,0.48053414,-0.07636614
0.054461643,0.23765384,0.039747678
0.039547943,0.0118177775,0.16225308
0.021438446,-0.19697405,0.35293543
-0.0041278997,-0.34611106,0.5180514
-0.025433188,-0.36528584,0.5297693
-0.050999533,-0.25662887,0.3902197
-0.06804377,-0.035053857,0.1526657
-0.07230482,0.18012956,-0.07849667
-0.06804377,0.2685465,-0.18715364
-0.035020567,0.22593592,-0.13495569
0.03635215,0.04377571,0.032290827
0.13435647,-0.2885868,0.19847208
0.22383869,-0.619884,0.27730164
0.2600577,-0.80524004,0.27197534
0.22490396,-0.821219,0.22510369
0.13435647,-0.7210842,0.1920805
0.022503711,-0.583665,0.20592894
-0.07976168,-0.43665856,0.24001738
-0.15539545,-0.2821952,0.2847585
-0.21931131,-0.11601395,0.35293543
-0.28003138,0.024600951,0.43922183
-0.33862093,0.1428453,0.52231246
-0.3844273,0.24511069,0.5840978
-0.41638523,0.31222233,0.6064684
-0.44195157,0.32713604,0.5798367
-0.4675179,0.32926658,0.53189987
-0.48775795,0.3644203,0.5073988
-0.49095374,0.41342247,0.51272506
-0.46645266,0.4304667,0.51272506
-0.43556,0.39318246,0.47970188
-0.42490736,0.31541815,0.42430815
-0.43769053,0.26428545,0.3902197
-0.41851577,0.23339278,0.395546
-0.35033885,0.16202006,0.34654385
-0.25979137,0.12580107,0.19847208
-0.16817862,0.17373797,-0.022037657
-0.090414315,0.31115708,-0.31072432
-0.042477418,0.4815994,-0.6217815
-0.046738476,0.6509764,-0.8593355
-0.07976168,0.84485453,-0.95414406
-0.07869641,1.0813433,-0.9189903
1.3315806E-4,1.2336761,-0.8028765
0.13435647,1.1601728,-0.6665226
0.28668928,0.8821388,-0.5855625
0.40280312,0.55723315,-0.5738446
0.46352318,0.29091707,-0.60686785
0.47098005,0.117278956,-0.6846321
0.43476105,0.036318857,-0.7922238
0.38043255,0.03418833,-0.9125987
0.32397354,0.08319049,-1.030843
0.26325348,0.16841164,-1.1181947
0.19507656,0.286656,-1.1405653
0.1247691,0.41448772,-1.094759
0.06617955,0.52101415,-1.0063419
0.02676477,0.600909,-0.89022815
0.00545948,0.67228174,-0.7400259
-0.0019973707,0.7212839,-0.5397562
0.009720538,0.713827,-0.28941903
0.039547943,0.6147574,-0.014580807
0.06831008,0.41129193,0.24214792
0.072571136,0.13858424,0.47117978
0.028895298,-0.19484352,0.7556054
-0.056325857,-0.4824649,1.1156647
-0.1447428,-0.63905877,1.3691977
-0.19800602,-0.6145577,1.3873072
-0.22357237,-0.40896168,1.1838417
-0.23209448,-0.05955494,0.8163254
-0.22676817,0.29517812,0.4221776
-0.20865867,0.5156878,0.113250926
-0.1926797,0.5401889,-0.02736398
-0.17030916,0.35696346,0.045074
-0.10106696,0.018209364,0.266649
0.028895298,-0.42494065,0.48715875
0.17590179,-0.87554747,0.5936852
0.2739061,-1.1983227,0.5840978
0.29627666,-1.2888701,0.49568087
0.25473136,-1.1759521,0.38808915
0.18016285,-0.9831392,0.28369322
0.104529075,-0.785,0.1558615
0.035286885,-0.6177535,0.048269793
-0.024367923,-0.4686165,0.009920275
-0.08721852,-0.36102477,0.023768712
-0.1479386,-0.34717634,0.057857174
-0.1926797,-0.3248058,0.07596667
-0.22463764,-0.21721408,0.07277088
-0.26298717,-0.05742441,0.065314025
-0.31944618,0.08105996,0.050400324
-0.38016623,0.22593592,0.03442136
-0.41318944,0.4038351,0.046139266
-0.4025368,0.5700163,0.08981511
-0.35246935,0.6509764,0.13668674
-0.2917493,0.61156166,0.15160045
-0.2523345,0.50929624,0.14520885
-0.24594292,0.39318246,0.16757941
-0.21931131,0.2589591,0.21764684
-0.1628523,0.04590624,0.20486367
-0.1149154,-0.13305819,0.0930109
-0.09467538,-0.13625398,-0.045473475
-0.089349054,0.07253785,-0.16797888
-0.06378271,0.34737608,-0.29154956
-0.016911073,0.57321215,-0.44494763
0.023568975,0.7425892,-0.6281731
0.027830033,0.9215536,-0.7517438
0.02676477,1.1431286,-0.7368301
0.05552691,1.2762866,-0.61538994
0.12689963,1.0877348,-0.43216446
0.25153556,0.6243448,-0.305398
0.37510625,0.29091707,-0.27450532
0.4539358,0.11408316,-0.29261482
0.47630635,0.0022303974,-0.3352254
0.45500106,-0.05955494,-0.4129897
0.41665155,-0.060620204,-0.52271193
0.3729757,-0.045706503,-0.6324342
0.32716933,-0.028662272,-0.7133943
0.2834935,0.016078835,-0.74641746
0.24514398,0.06721153,-0.7357648
0.20999025,0.086386286,-0.69635004
0.18122812,0.07040732,-0.63562995
0.15353124,0.035253596,-0.54401726
0.12689963,-0.008422247,-0.40872866
0.103463806,-0.0787297,-0.22337264
0.08961537,-0.18738668,-0.0017976337
0.087484844,-0.32587105,0.21445104
0.09281116,-0.45476803,0.40513337
0.08961537,-0.54638076,0.5958157
0.061918493,-0.65716827,0.88024133
0.03741741,-0.7860653,1.2914333
0.035286885,-0.95863813,1.6024905
0.07470167,-1.0939267,1.6024905
0.088550106,-1.0907309,1.3223261
0.043809,-0.82548004,0.86639285
0.0065247444,-0.45157224,0.43815657
0.012916331,-0.29497838,0.18036258
0.0587227,-0.45583332,0.0930109
0.14181332,-0.8744822,0.173971
0.2536661,-1.3708955,0.43922183
0.3612578,-1.804458,0.730039
0.41025996,-1.985553,0.858936
0.38682413,-1.9152455,0.87384975
0.29627666,-1.6883442,0.8109991
0.18122812,-1.3783523,0.69275475
0.084289044,-1.0374677,0.5798367
0.04167847,-0.7466505,0.47437558
0.04167847,-0.5676861,0.4072639
0.045939527,-0.5133576,0.39661127
0.044874266,-0.5122923,0.41898182
0.031025827,-0.6177535,0.42111236
-0.0041278997,-0.7317368,0.4040681
-0.046738476,-0.6742125,0.35826173
-0.04780374,-0.7210842,0.23575634
-0.05526059,-0.7296063,0.11857725
-0.08828379,-0.67953885,0.08661931
-0.106393285,-0.5857956,0.09727196
-0.09467538,-0.53253233,0.1260341
-0.058456384,-0.43239748,0.16757941
-0.03821636,-0.27473834,0.21232052
-0.04034689,-0.21827933,0.28156272
-0.01158475,-0.32587105,0.37317544
0.059787966,-0.56449026,0.3476091
0.13542174,-0.7349326,0.1441436
0.172706,-0.77221686,-0.11684619
0.16311862,-0.6603641,-0.34907383
0.13329121,-0.4824649,-0.52590775
0.11198592,-0.31841418,-0.6590658
0.08535431,-0.18738668,-0.7602659
0.021438446,-0.046771765,-0.748548
-0.057391122,0.1098221,-0.5855625
-0.11811119,0.25576332,-0.34374753
-0.120241724,0.3409845,-0.11578093
-0.07017429,0.3942477,0.031225564
-0.01158475,0.4038351,0.067444555
0.0011984225,0.39318246,0.016311862
-0.033955302,0.38892138,-0.07423562
-0.085088,0.41448772,-0.19780628
