ACC_X,ACC_Y,ACC_Z
2.5917234,-7.3873096,6.9108634
2.3211784,-7.4387846,6.8450227
2.0290859,-7.553706,6.697779
2.1547816,-7.7440453,6.611588
2.4001873,-8.100781,6.5146227
2.5390508,-8.443152,6.5948286
2.4720132,-8.590396,6.5708866
2.4863784,-8.577228,6.599617
2.372654,-8.534132,6.4727244
2.2098482,-8.322245,6.244078
2.1057005,-8.159439,6.0980315
2.3223755,-8.161834,6.0704985
2.3020248,-8.250419,6.054936
2.336741,-8.228871,6.2883706
2.2266076,-8.248025,6.38773
2.3068132,-8.340201,6.269217
2.315193,-8.230068,5.955577
2.3762453,-8.063671,5.60722
2.5007436,-7.9511437,5.4683566
2.6288335,-7.9236107,5.4444146
2.7042508,-7.896077,5.437232
2.895787,-7.9272017,5.507861
3.003526,-7.9906483,5.494693
2.9340942,-8.037335,5.566519
2.6922798,-8.018182,5.7137623
2.4492683,-7.979874,5.7784057
2.2577322,-7.928399,5.7987566
2.2038627,-7.880515,5.7736173
2.2517467,-7.839813,5.6467247
2.243367,-7.762002,5.518635
2.2349873,-7.78355,5.3678
2.292448,-7.825448,5.345055
2.3702598,-7.881712,5.2863975
2.4109612,-7.8996687,5.294777
2.4839842,-7.9307933,5.4899044
2.5187001,-8.103176,5.657499
2.5797524,-8.149862,5.768829
2.5570073,-8.084022,5.7520695
2.6156654,-8.030152,5.73531
2.6084828,-7.97748,5.7496753
2.6982653,-7.964312,5.6227827
2.7581203,-7.9726915,5.518635
2.7748797,-8.019379,5.505467
2.743755,-8.007407,5.6239796
2.7617116,-8.091205,5.7029886
2.8072014,-8.057686,5.675455
2.7952304,-8.074445,5.9160724
2.5953147,-8.031349,6.1100025
2.4121583,-7.7548194,6.0561333
2.3511062,-7.5201874,5.807136
2.421735,-7.386112,5.559336
2.5689783,-7.441179,5.279215
2.64679,-7.501034,5.341464
3.7002387,-7.965509,4.4544125
5.1523223,-8.218098,3.9731777
5.4539914,-8.39886,3.9109285
4.7058034,-8.394072,4.158728
3.8666358,-8.340201,4.390966
3.3399115,-8.2516165,4.602853
3.1986535,-8.091205,4.584896
3.1112652,-8.049306,4.5418005
3.1352072,-8.038532,4.4220905
3.2728736,-8.028955,4.3478703
3.6415808,-8.12233,4.297592
3.8642416,-8.094796,4.0438066
4.1180267,-8.264784,4.0078936
4.2341456,-8.432379,4.1383777
4.322731,-8.453926,4.1264067
4.605247,-8.446744,3.8762126
4.8757915,-8.354567,3.5781345
5.243302,-8.2037325,3.2369606
5.8262897,-8.079233,2.823961
5.9388175,-7.7584105,2.777274
5.6407394,-7.513005,3.1435869
5.391742,-7.374141,3.550601
5.249287,-7.1634517,3.515885
5.2660465,-7.019799,3.288436
5.397728,-7.0209966,3.1639376
5.5006785,-7.097611,3.0681696
5.816713,-7.2448545,2.8993783
6.1890116,-7.3909006,2.8646624
6.2584434,-7.5764513,2.8095956
6.353014,-7.751228,2.6036944
6.215348,-7.902063,2.7150247
5.866991,-7.9942393,2.8682537
5.6096144,-8.020576,2.9712043
5.4204726,-7.937976,3.1028855
5.317522,-7.9068513,3.0921116
5.353435,-7.8996687,2.954445
5.497087,-7.97748,2.8419175
5.5820813,-8.025364,2.813187
5.461174,-7.9691005,2.823961
5.3594203,-7.8517847,2.7593174
5.353435,-7.751228,2.789245
5.3474493,-7.643489,2.753332
5.4899044,-7.5572977,2.7401638
5.6886234,-7.477092,2.777274
5.8095303,-7.422025,2.767697
5.8909335,-7.419631,2.7473464
5.889736,-7.358579,2.7497406
5.8334723,-7.32506,2.705448
5.852626,-7.37055,2.7688942
5.861006,-7.3525934,2.932897
5.886145,-7.2687964,2.906561
6.0525417,-7.2508397,2.8538885
6.089652,-7.2005615,2.8263552
6.1530986,-7.2125325,2.8203697
6.1686606,-7.219715,2.885013
6.0944405,-7.216124,2.9580362
6.133945,-7.240066,2.9317
6.183026,-7.21373,2.8526914
6.245275,-7.183802,2.8491
6.3218894,-7.165846,2.871845
6.4523735,-7.189788,2.7736826
6.55293,-7.1706343,2.7700913
6.531382,-7.1670427,2.6156654
6.5505357,-7.2149267,2.6168625
6.513426,-7.255628,2.754529
6.38773,-7.1861963,2.8443117
6.3865333,-7.1167645,2.89459
6.3865333,-7.0341644,2.8060043
6.3578024,-6.9527617,2.777274
6.4020953,-6.884527,2.707842
6.3769565,-6.7983356,2.8167782
6.337452,-6.730101,3.0083144
6.2500634,-6.5325794,3.084929
6.220136,-6.31351,3.1830912
6.0824695,-6.0381765,2.9724014
6.0130377,-5.7628436,2.9041667
6.1183825,-5.60722,2.907758
6.184223,-5.2660465,2.565387
6.4727244,-4.871003,1.7357962
7.03177,-4.584896,1.0785879
7.5333557,-4.699818,0.19991584
8.00621,-4.8901567,-0.37828386
8.5473,-4.9224787,-1.0666169
8.534132,-4.9057193,-1.9440918
8.291121,-5.085284,-2.1523874
8.145074,-5.471948,-2.2649148
8.171411,-5.720945,-1.9632454
7.953538,-5.565322,-2.1703439
7.5201874,-5.4085016,-2.6503813
7.5046253,-5.639542,-2.517503
7.3633676,-5.746084,-2.1894975
7.065289,-5.758055,-1.7501614
7.207744,-5.9424086,-1.6232687
7.2209125,-6.194997,-1.7393875
7.4232225,-6.578069,-1.9117701
8.526949,-6.7001734,-2.4277205
9.121908,-6.8306575,-2.754529
9.44752,-7.4471645,-3.240552
9.600749,-7.514202,-3.2752678
8.890868,-7.37055,-2.4839842
7.9691005,-7.404069,-2.0278888
7.037756,-7.2831616,-1.8088194
8.076839,-6.6882024,-2.078167
8.35337,-6.3601966,-1.804031
7.5333557,-6.554127,-1.9033904
7.431602,-5.872977,-1.7669208
7.827842,-5.601235,-1.5442601
7.4363904,-5.5377884,-1.2425907
7.2687964,-5.273229,-0.50397944
7.357382,-5.2026005,-0.6703765
8.085219,-4.689044,-1.1432313
8.593987,-4.325125,-1.9141643
8.583213,-4.417302,-1.946486
8.072051,-4.1252093,-1.9141643
7.789535,-3.3925838,-0.8834604
7.6506715,-2.9017725,-0.8774749
7.2544312,-3.004723,-0.5434838
7.392098,-2.9724014,-1.3024458
8.080431,-3.1064768,-1.7776948
8.699332,-3.7565024,-1.9333179
8.700529,-4.1635165,-0.6356605
8.09719,-3.3135753,-1.0295067
8.790312,-4.201824,-0.9947908
9.063251,-5.3941364,-1.4317327
8.129512,-5.427655,-1.1994951
8.603564,-6.4164605,-0.7074866
8.586804,-7.787141,-0.8535329
8.686164,-6.941988,-1.5107412
8.394072,-6.6965823,-1.1839328
8.438364,-7.047333,-0.89543146
8.645462,-6.5361705,-0.6991069
7.5525093,-6.009446,-1.0139444
8.499416,-6.2967505,-2.0171149
9.514558,-6.0166287,-2.4708161
9.397242,-5.5006785,-2.1140802
8.701726,-5.281609,-1.2198458
8.0445175,-5.327099,-0.8858546
7.620744,-4.631583,-1.5179238
8.437167,-5.0517654,-2.767697
8.669404,-4.4005427,-2.4229321
8.366538,-4.4879313,-1.6352397
7.7081323,-4.3598413,-0.7170634
7.5453267,-4.4544125,0.51235914
7.2747817,-4.7644615,1.2282255
7.7572136,-4.923676,1.2916719
8.535329,-4.8877625,1.0474633
9.058462,-4.620809,0.6596026
8.854955,-4.995502,0.24061728
7.8888946,-5.209783,0.24899697
8.09719,-5.3115363,0.7278373
7.916428,-5.4324436,0.6931214
8.157045,-5.8322754,0.45370123
8.337808,-5.6539073,-0.17597382
8.452729,-5.5042696,0.05626374
7.538144,-5.4180784,0.25857377
7.4746976,-5.398925,0.61171854
7.595605,-5.0397944,1.2234371
7.443573,-5.222951,1.5885528
7.297527,-4.9069166,1.8590976
7.869741,-3.9324763,-0.079008654
6.51582,-5.0182467,3.1878796
5.78918,-5.377377,3.526659
7.60997,-4.975151,2.9939492
7.860164,-5.66947,3.2920272
7.964312,-6.405687,3.2968156
8.1642275,-6.3578024,3.0322564
8.313866,-6.4463882,3.3913867
8.091205,-6.349423,3.846285
7.5932107,-6.0968347,3.7134068
7.657854,-6.051345,3.5924997
7.9307933,-6.0956373,3.241749
8.1079645,-6.0764837,2.8443117
8.426393,-6.167464,2.112883
8.214506,-5.876568,2.160767
7.997831,-5.722142,2.517503
7.8625584,-5.7137623,2.80361
7.777564,-5.5389857,2.7928362
7.631518,-5.270835,2.2996306
7.7344685,-4.8662148,1.3982137
8.3821,-4.486734,0.62368953
9.160215,-4.450821,0.2657564
9.13388,-4.629189,0.33997664
9.044097,-4.957195,0.31364042
8.99741,-5.0254292,0.130484
8.9842415,-5.005079,-0.020350715
9.11712,-5.197812,-0.25857377
9.32781,-5.4168816,-0.41299978
9.232041,-5.6551046,-0.31004912
8.772355,-5.7544637,-0.31483752
8.400057,-5.783194,-0.15682021
8.028955,-5.781997,0.21667525
7.595605,-5.66109,0.59974754
7.314286,-5.6646814,0.8415619
7.001843,-5.637148,0.45729253
6.980295,-5.5222263,0.29807812
7.2508397,-5.645528,-0.047884032
7.6973586,-5.73531,-0.5446809
8.127118,-5.9052987,-0.7733272
8.028955,-6.0250087,-1.0390835
8.013393,-5.9412117,-1.0702082
8.328231,-5.7999535,-0.8774749
8.27077,-5.4204726,-1.5191209
8.049306,-4.911705,-2.4361002
8.14268,-4.7058034,-2.4157495
8.534132,-5.0014873,-1.9871874
8.635885,-5.105635,-1.6448165
8.455123,-5.1642933,-1.816002
7.991845,-5.54138,-1.4460979
7.285556,-5.625177,-1.2617443
5.106832,-8.555679,2.9376855
6.5601125,-8.565256,1.151611
7.3777328,-5.365406,-1.638831
8.040926,-6.223727,-1.5897499
7.321469,-6.9467764,-2.9640217
7.633912,-5.511452,-6.2847795
7.608773,-3.7074213,-8.783129
6.9120603,-2.6719291,-10.812215
7.691373,-2.730587,-10.948685
8.10557,-2.3642743,-1.0749966
5.5641246,-2.1404164,2.349909
9.952697,-1.532289,2.4827871
11.713632,-2.1332338,2.9759927
8.785523,-4.423288,1.0941502
4.6722846,-1.7369933,-1.2569559
5.1882353,-1.769315,-0.91219085
7.7679873,-8.871715,-3.4584243
11.130644,-8.416816,-14.389153
10.0269165,-4.4077253,-16.950949
7.7081323,-4.950012,-13.52724
6.849811,-5.321113,-3.810372
5.554548,-1.4317327,1.5993267
8.127118,0.23582886,1.9919758
7.091625,0.6715736,3.1376014
9.749189,-0.89782566,0.7254431
9.175778,-2.9245174,-1.043872
5.2768207,-3.3327289,-1.3970166
7.455544,-5.7867856,-2.0266917
9.109938,-9.196129,-9.367314
9.436746,-13.839683,-11.611878
5.711368,-10.365696,-13.208811
7.8829093,-7.837419,-9.428367
6.781576,-8.072051,-7.3789296
5.8334723,-4.321534,-4.155137
5.579687,-1.6950948,4.367024
5.517438,-1.0833763,7.526173
8.896853,-1.1492168,5.403713
9.495404,-1.4879963,1.8471266
5.3127337,-0.46447513,-1.3551182
5.837064,-3.714604,-4.8865657
8.688558,-9.400833,-7.765593
8.669404,-10.601525,-8.212111
9.397242,-12.316971,-12.397177
5.8478374,-7.016208,-14.332889
7.929596,-5.1642933,-10.229227
8.327033,-5.81791,-5.5856724
8.488642,-3.1543608,-2.6180596
7.169437,-0.30166942,8.230068
8.027759,0.18555063,9.847352
11.822568,-2.1763294,6.706159
6.117185,-1.4065934,2.4408886
5.327099,-2.9161377,-2.3187842
8.7771435,-7.860164,-9.464279
11.781867,-12.203246,-11.056423
8.762778,-8.379706,-17.422606
8.086416,-5.961562,-17.208324
8.742428,-7.047333,-6.8809357
4.262876,-4.9296613,-3.0190883
0.260968,-0.5410896,6.6163764
3.5362358,2.0506337,11.56998
10.052056,0.9672575,9.307459
9.783905,-1.3204023,5.840655
6.2105594,-1.4460979,-1.4460979
11.431116,-9.662998,-8.492233
13.500903,-17.893066,-11.784261
5.45878,-12.685678,-23.058558
6.4128695,-9.345766,-18.86152
10.159795,-9.981427,-6.7600284
3.1232362,-4.975151,-3.550601
3.774459,-1.8579005,-0.7254431
4.4879313,0.21787235,10.973824
7.417237,0.81283146,11.112687
8.115147,-1.9955671,8.475474
5.57849,-2.2062569,2.360683
8.91481,-7.6470804,-3.7900212
7.4375877,-13.492524,-13.937845
8.663419,-13.7367325,-23.962368
8.297106,-8.240842,-19.83596
8.950723,-9.487024,-3.4033577
5.1930237,-5.436035,-5.6670756
5.2648497,-1.899799,-2.0817583
5.2085857,-1.3371617,9.497798
5.708974,2.1655555,12.258312
8.4647,-2.7473464,10.82658
4.072537,-0.076614454,4.4639893
8.585608,-5.436035,-1.8016368
7.6889787,-13.063962,-13.976152
10.159795,-11.653777,-22.631191
10.812215,-9.588778,-23.174675
10.072407,-8.8645315,-8.884883
6.191406,-5.448006,-4.510676
4.8662148,-2.2780828,0.8690952
4.0198646,-1.3323733,9.950302
4.0138793,0.56982,13.030443
5.1235914,-4.253299,11.911154
3.8498764,-1.6687586,2.944868
10.247183,-3.5553896,-9.710882
15.62456,-14.998477,-15.933413
12.928689,-17.30529,-27.216087
4.7405195,-5.9292407,-17.89546
10.135853,-7.123947,-1.7609353
3.807978,0.49081135,-8.639477
-0.2717419,2.6036944,5.60722
4.134786,2.8574798,12.091916
5.697003,5.109226,11.013328
7.7248917,-3.1471782,7.9834657
10.720038,-9.721656,4.104859
10.496181,-11.729194,-14.1664915
7.217321,-14.283808,-24.965538
8.687361,-10.334572,-24.774002
8.942344,-7.1766195,-13.102269
5.2744265,-6.0046577,-2.3355439
4.1299977,0.1376666,-7.6949644
6.481104,-1.0989386,11.909956
6.9970546,2.0721815,13.001713
5.995081,-0.6356605,10.969035
3.9995139,-3.0131028,6.4763155
6.3206925,-5.3558292,-0.19512744
8.963891,-13.716381,-16.21114
10.969035,-11.5077305,-26.317064
11.757924,-9.801862,-23.99469
8.707711,-8.582016,-7.6267295
6.975507,-2.9783869,-7.6494746
2.3918076,-1.0199299,7.7081323
5.8107276,0.90141696,11.591528
5.106832,0.866701,13.354857
3.2130187,-3.6739025,10.579977
6.9383965,-4.8255134,2.2960393
11.034876,-11.320983,-17.302896
12.172121,-11.280281,-27.54529
13.037625,-9.062054,-25.791538
8.576031,-7.8865004,-5.9507885
7.3286514,-3.5051112,-7.66384
-0.93852705,-0.29328972,8.868123
4.8147397,1.472434,13.979744
3.6978445,0.3854665,17.775751
4.2820296,-4.8961425,14.074315
11.320983,-9.259575,-8.791509
13.626599,-10.168175,-25.03138
11.319786,-10.313024,-28.981812
10.502166,-7.9691005,-22.02546
4.734534,-5.5940523,-4.736928
3.4572272,-1.6950948,-5.8346696
1.7046716,-0.16639702,11.245565
2.8909986,1.3024458,15.30254
2.9724014,-2.9245174,13.0041065
9.26197,-5.8598084,4.1635165
11.744757,-2.8407204,-15.203181
8.37372,-9.7240505,-21.156363
12.372037,-12.605472,-24.847025
8.92319,-7.620744,-11.971008
8.635885,-3.3973722,-13.678074
3.1148565,2.6048915,-5.1583076
4.4963107,1.922544,13.936648
3.9336734,3.9001546,15.751453
4.2305546,-2.5198972,14.817715
6.6175733,-5.8933277,7.0221934
5.9184666,-10.704475,-14.016854
13.211205,-16.303316,-32.963367
14.757859,-10.488997,-33.207577
7.2544312,-5.697003,-6.494272
6.566098,-3.1543608,-7.9607205
-0.075417355,1.2030864,15.562311
1.827973,4.722563,15.241488
5.4144874,0.34356794,16.01721
7.067683,-3.4093432,10.552444
13.476961,-11.571177,-4.247314
15.910667,-14.736312,-23.720552
8.080431,-9.64983,-38.482002
11.694478,-6.9407907,-27.888859
5.255273,-5.625177,-3.654749
-1.6316484,0.8355764,3.787627
-1.2569559,2.8550856,15.649699
2.754529,2.9855695,15.990873
9.308656,-5.315128,10.606314
11.447875,-8.123527,5.1140146
11.09473,-10.984597,-17.059885
12.644977,-12.196063,-31.640574
10.180145,-7.632715,-28.434736
8.694544,-6.443994,-6.64391
6.4248405,-3.0969,-9.339781
-1.4688427,4.6351743,12.349293
2.906561,0.44891283,14.791378
4.249708,0.18435353,15.194801
4.2102036,-5.685032,10.049662
12.023681,-12.121843,-9.016563
12.191275,-13.117831,-23.471556
12.641385,-9.576807,-30.82415
11.407174,-7.529764,-25.046942
8.463503,-5.400122,-4.7979803
3.369839,-1.484405,-0.7086837
-1.0079589,2.0290859,15.195998
2.9496565,2.8263552,15.194801
3.441665,-1.365892,14.793773
6.3661823,-4.9823337,3.6703112
12.50731,-12.190078,-14.863204
11.56998,-12.299014,-28.209682
14.255077,-9.524135,-31.094694
10.006566,-5.518635,-21.539436
4.429273,-4.3754034,-3.144784
2.5139117,-2.2278047,5.813122
-0.7505822,1.5239093,15.925033
3.7804444,1.2988545,14.785393
5.092467,-3.558981,12.722788
9.824607,-7.8972745,1.3479356
10.125079,-10.144233,-19.128475
8.51019,-8.614338,-30.927101
14.046782,-8.827422,-27.670986
10.494983,-5.5868697,-13.791799
3.8534677,-4.1611223,-8.523358
5.398925,-2.0973208,11.723208
1.8674773,-0.1364695,15.555128
4.203021,-0.34117374,15.479712
4.1946416,-2.813187,10.208876
10.653001,-7.5812397,-4.578911
10.389638,-9.299079,-16.785748
7.5429325,-7.5225816,-28.414385
13.115437,-6.621165,-28.561628
8.23366,-5.6910176,-11.089942
7.7308774,-7.505822,-3.2381577
3.2908301,-2.2972364,7.735666
2.4624364,0.89782566,15.334862
0.79487497,1.8339585,14.80694
3.7313633,-1.174356,2.1511903
12.423512,-3.3123782,-13.174095
11.245565,-8.289924,-18.48204
9.940725,-9.094376,-22.807165
9.2547865,-4.3179426,-15.781381
10.919954,-3.7445314,-10.480618
6.05733,-2.018312,-5.840655
6.3949127,-1.0702082,4.0821137
5.1690817,0.36870706,4.3143516
5.535394,1.2665327,0.08499416
7.0545154,1.1767502,-4.894945
9.306262,0.24061728,-7.9750857
9.321824,-0.89303726,-7.404069
8.834604,-1.4580688,-5.088876
9.069236,-2.219425,-4.1060557
8.896853,-3.1794999,-3.040636
7.926005,-3.3063924,-1.4221559
7.9307933,-3.5051112,-1.2294226
9.205706,-3.8774097,-1.9632454
9.380483,-4.187459,-2.2900538
8.9758625,-4.923676,-2.303222
8.505402,-5.1020436,-2.6563668
8.318654,-5.057751,-2.7724855
7.619547,-4.3394904,-2.5785553
7.5094137,-4.0545807,-2.6144683
7.2508397,-3.3758245,-2.3774424
7.0820484,-2.8048072,-2.4277205
7.523779,-2.7126305,-2.5689783
8.445546,-2.542642,-2.991555
8.3390045,-2.160767,-3.4045548
8.348581,-2.0494366,-2.979584
8.537724,-1.8495208,-3.4332852
8.564059,-1.673547,-3.5805287
9.053674,-1.8315643,-3.13401
9.325416,-1.9009962,-3.3087866
8.986636,-1.7848774,-2.9412768
8.799889,-1.7872716,-1.5873557
8.707711,-1.9165585,0.01436521
8.662222,-2.1978772,0.78649527
8.512584,-2.208651,0.58298814
7.9930425,-2.3690627,-0.1376666
7.1431007,-2.89459,-2.6779146
6.9850836,-5.6323595,-6.992266
9.721656,-8.954314,-11.853693
12.283452,-3.6607344,-14.3735895
10.33098,-2.6635494,-11.32218
6.114791,-2.4672248,-4.9883194
6.009446,1.6172832,8.907627
8.874108,1.8219875,13.854048
8.380903,-1.8411411,10.927136
6.4978633,-5.175067,6.579266
6.5840545,-4.7860093,-10.718841
11.142614,-7.4950485,-21.596897
15.528792,-8.668207,-29.783869
12.0332575,-5.080496,-22.081722
6.315904,-5.2181625,-10.478224
3.003526,0.15562311,-2.6360161
5.4791307,-0.8690952,13.340492
7.241263,-3.4380736,17.860744
6.505046,-4.626795,15.901091
5.7963624,-5.815516,4.394557
7.503428,-5.7305217,-14.885949
10.445902,-6.609194,-18.30846
12.087128,-9.412804,-27.034128
7.4351935,-5.6790466,-20.207062
7.1945763,-5.483919,-7.4806833
5.6156,-4.131195,-1.9536686
6.2608376,-1.9381063,5.2169657
6.5481415,-3.8510735,13.377602
6.7803793,-4.4304705,9.621099
6.131551,-3.1651347,-3.0550013
8.998607,-0.59256494,-11.347319
10.631453,-2.5019407,-9.653421
9.727641,-7.711724,-8.651448
9.382876,-4.796783,-4.56694
10.189722,-3.582923,-2.3080103
8.221688,-3.7948096,-7.6171527
8.364143,-2.1775265,-6.0681043
10.794258,-3.5170822,-3.762488
10.077195,-4.3897686,-2.2852654
9.532514,-3.2477345,-3.916914
11.177331,-3.0825348,-5.33907
11.705252,-4.9907136,-4.945224
10.362105,-5.345055,-2.814384
7.1634517,-3.6343982,-0.08020575
5.7508726,-5.753267,3.9001546
5.5102553,-8.816648,3.8355112
4.7680526,-6.087258,5.057751
4.361038,-3.928885,1.2078748
5.1690817,-1.7106571,2.3463178
3.063381,-0.6715736,3.3877954
4.1036615,-4.1383777,2.1978772
4.631583,-0.011971008,7.5848308
4.146757,-4.891354,8.973468
6.3685765,-6.38773,9.665392
8.91481,-4.853047,7.5848308
9.536105,-6.6271505,5.747281
8.577228,1.1468226,6.882133
8.75799,-2.6180596,5.865794
5.4168816,-2.8299465,10.964247
3.9480386,-3.705027,10.535685
5.1475334,-3.502717,10.53329
5.542577,-5.225345,14.750677
3.1711202,-4.259285,14.300567
5.5748987,-3.393781,9.791088
2.6372132,-1.4221559,10.09156
-1.1360487,-2.124854,11.549629
-4.237737,-2.835932,11.112687
0.12808979,-4.3837833,5.98311
2.6922798,-4.739322,7.165846
5.6790466,-5.758055,-0.005985504
8.394072,-3.7612908,-5.305551
9.01417,-1.9081788,-3.5122938
7.3873096,-3.4021606,-3.2477345
8.467094,-4.879383,-6.2225304
8.3821,-3.357868,-8.366538
7.2687964,-1.3682863,-9.279925
9.805453,-2.0111294,-5.98311
12.2080345,-2.859874,-10.150218
13.193249,-1.2761095,-3.928885
9.933543,-3.0107086,-2.9245174
7.038953,-3.7469256,-2.4624364
6.314707,-3.5553896,-1.7262194
12.239159,-3.7469256,-0.095768064
9.65821,0.15083471,-3.0550013
9.385271,-0.4369418,-7.15986
11.920731,-0.9888053,-6.1423244
7.7081323,0.6584055,-1.4137762
5.04578,-0.6823475,0.39863458
10.67814,-2.753332,-1.0354922
12.418724,-2.0925324,-0.09696517
11.641806,-3.6403837,4.614824
9.294291,-4.545392,0.62488663
7.1466923,-3.4644098,-1.9608512
8.204929,-0.93014735,-4.321534
10.378864,-0.08619126,-3.739743
10.69011,-2.255338,-2.586935
12.665327,-4.0198646,-3.4261026
12.850878,-1.4065934,-4.06296
10.57878,-0.6691794,-3.4811692
10.222044,-2.4720132,-4.7022123
9.345766,-2.8898015,-2.8754363
9.980229,-3.3387144,-3.5122938
8.683769,-3.4045548,-1.0462662
4.074931,-3.4955344,1.8543092
0.8367735,-3.7936125,4.783615
3.0095115,-6.611588,0.8702923
7.5800424,-3.5637693,3.0933087
8.087613,-1.9165585,-1.3455414
7.5225816,-0.664391,5.5868697
3.6008794,-3.3530796,6.35062
5.717354,-5.5964465,8.656237
10.224439,-6.619968,8.9998045
10.673351,-2.9400797,4.823119
9.198523,0.56982,5.0014873
7.241263,-4.0174704,7.763199
5.1463366,-3.004723,10.992977
6.2368956,-3.952827,13.89475
6.3230867,-4.5501804,14.366407
5.3678,-0.79487497,11.23958
5.98311,-1.3850456,9.568427
1.7357962,-2.292448,11.246762
-0.7266402,-3.157952,10.821792
0.5793968,-3.228581,5.118803
1.2030864,-2.669535,4.485537
3.7828386,-5.2648497,2.743755
6.003461,-7.1909847,-3.0430303
10.187328,-5.979519,-6.0381765
9.892841,-2.1392193,-9.55047
12.313379,-2.0649989,-9.367314
15.19959,-4.2221746,-10.668563
12.491747,-4.31076,-10.341754
11.815386,-2.124854,-4.4675803
9.727641,-0.6607997,0.4441244
7.3789296,-2.1883004,0.6619968
7.78355,-1.1899183,0.4297592
7.914034,-0.010773907,0.79248077
7.487866,-0.10414778,1.6603789
7.189788,-2.3666685,-0.093373865
10.245986,-8.487445,-0.9828198
11.449073,-7.5549035,-4.4005427
9.537302,-1.4999673,-12.13142
8.746018,-0.07062895,-9.166202
9.035717,-5.009867,-1.9321208
8.355764,-1.0354922,0.4381389
7.9391727,1.9189527,9.070433
8.614338,0.21308395,8.91481
7.3202715,-3.4751837,4.855441
6.8450227,-2.1894975,-0.8367735
6.003461,0.37828386,-15.412673
12.91193,-5.403713,-9.546879
12.625823,-6.4739213,-10.255563
9.51336,-1.851915,-7.37055
8.236053,-4.3885717,-2.694674
7.2963295,-3.645172,0.90261406
8.3150625,-1.7968484,1.270124
9.03452,-1.7345991,1.435324
8.327033,-1.7429788,3.2824504
8.963891,-2.0745757,-0.33638534
9.349358,-1.8459295,-2.2589293
8.66701,-1.816002,-3.1148565
8.007407,-3.1244333,-2.7090392
7.443573,-4.0174704,-2.0278888
7.892486,-3.9228995,-1.3970166
8.662222,-3.4272997,-2.5605986
9.483433,-3.0909145,-3.74094
8.76637,-2.8000188,-4.373009
9.337387,-3.0909145,-4.830302
9.020155,-3.2190042,-2.8443117
9.069236,-3.58412,-1.2641385
9.28232,-3.9372647,-0.60693014
9.072827,-4.2102036,-1.1683705
8.603564,-4.3646297,-1.578976
8.440758,-4.2102036,-1.2988545
8.7532015,-4.056975,-1.7417817
8.1881695,-4.2580876,-1.436521
7.595605,-4.417302,-2.079364
8.376115,-4.6255975,-2.7222073
8.6813755,-4.7285485,-4.26527
9.479841,-5.3965306,-5.872977
9.55885,-5.9424086,-5.48751
8.656237,-5.729325,-3.8750155
8.127118,-5.5461683,-2.7593174
7.759608,-6.184223,-2.397793
7.345411,-5.90889,-2.9388826
8.090008,-5.5150437,-3.3770216
8.517372,-5.473145,-3.715801
8.184579,-5.3139305,-4.0641575
7.371747,-5.1822495,-4.1515455
7.1981673,-5.0397944,-4.3143516
8.136695,-4.630386,-3.9384618
8.503007,-4.0653543,-2.882619
7.680599,-3.6343982,-2.1559787
7.523779,-3.9025488,-1.9871874
7.8505874,-4.023456,-2.3750482
8.467094,-3.7936125,-2.4277205
8.737639,-3.6703112,-2.3259668
8.463503,-3.892972,-2.3894134
8.307879,-3.7062242,-2.2601264
8.356961,-3.4703953,-1.9500773
8.491036,-3.1711202,-1.6472107
8.437167,-3.3997664,-1.2892777
8.603564,-4.285621,-1.2617443
8.6334915,-3.954024,-1.4449008
8.513782,-3.7588966,-1.3970166
8.966286,-4.4005427,-1.1025299
9.015367,-4.3155484,-0.5398925
8.816648,-4.4460325,-0.062249243
8.331821,-4.820725,0.049081136
8.298303,-4.6926355,0.36990416
8.961497,-4.9057193,0.7194576
8.683769,-5.106832,0.7110779
8.507795,-4.995502,0.91219085
8.310274,-4.795586,1.4341269
8.431181,-4.617218,2.0745757
8.51857,-4.6112323,2.2505496
8.465898,-4.357447,1.8483237
9.018958,-4.4196963,1.5095441
8.955511,-4.3514614,1.4808137
8.676587,-4.155137,1.4101849
8.702923,-4.012682,1.4460979
8.693346,-3.846285,1.8614918
8.541314,-3.8630445,1.8435353
8.808268,-4.0078936,1.5394717
9.009381,-3.9719806,1.6472107
8.683769,-3.9145198,1.8411411
8.480263,-3.9097314,1.9153614
8.543709,-4.0019083,2.100912
8.435969,-4.2676644,2.303222
8.327033,-4.5777135,1.9057846
8.595184,-4.581305,1.2773066
9.001001,-4.6938324,0.4189853
9.491813,-4.7764325,0.2801216
9.242816,-4.8338933,0.6500258
8.485051,-4.7860093,1.210269
8.032547,-4.5382094,1.5358804
8.261193,-4.2197804,1.5813702
8.6574335,-4.000711,1.3275849
8.848969,-3.7708676,0.93613285
8.6574335,-3.630807,0.5650316
8.6574335,-3.6762967,0.61052144
8.748413,-3.954024,0.49919105
8.880095,-4.132392,0.2813187
9.033323,-4.1539397,0.11611878
9.149442,-4.209007,-0.41180268
9.5385,-4.390966,-0.37229836
9.309854,-4.507085,-0.23582886
9.205706,-4.277241,-0.1316811
8.895657,-4.096479,0.15801731
8.832211,-4.177882,0.12928689
8.959103,-4.1695023,-0.2681506
9.113529,-4.0294414,-0.11252748
9.100361,-4.201824,-0.01436521
8.761581,-4.203021,0.0047884034
8.899248,-4.357447,0.36870706
8.8884735,-4.608838,0.40581718
8.789114,-4.6806645,0.015562311
9.130288,-4.662708,0.16400282
8.842984,-5.055357,0.1448492
8.817844,-5.069722,0.035913024
8.558074,-5.09127,0.30166942
8.409634,-5.4779334,0.12210429
8.118738,-5.627571,0.4285621
8.033744,-5.566519,0.36990416
8.021772,-4.8817773,-0.059855044
8.306683,-4.973954,-0.12090719
8.376115,-5.009867,-0.5530606
8.900445,-4.6100354,-0.81283146
8.668207,-3.6643257,-0.2896984
7.9571295,-3.0358477,0.19752164
7.9212165,-3.0909145,0.49559975
7.9607205,-2.8407204,-0.17238252
9.188946,-2.719813,-0.6548142
9.791088,-2.6922798,-0.5506664
9.375694,-2.396596,-0.22744916
9.563639,-2.5103204,-0.15442601
9.455899,-2.8179753,-0.30645782
9.169792,-2.6982653,-0.17118542
9.17099,-2.669535,-1.0043676
9.260772,-2.5617957,-1.745373
9.36492,-2.6204538,-1.3395559
9.442732,-3.311181,-0.7218518
9.491813,-3.193865,-0.62728083
9.500193,-2.813187,-1.1839328
9.431957,-2.9376855,-1.7118542
9.64983,-3.2190042,-1.6711528
9.266758,-2.9783869,-1.246182
8.977059,-2.908955,-0.9816227
10.0029745,-3.2968156,-0.5554548
9.076419,-3.6774938,0.16280572
7.633912,-3.6727054,0.45489833
7.3992805,-3.3435028,0.15203181
8.86932,-3.2944214,-0.44771573
8.836999,-4.2916064,-0.9959879
8.025364,-5.1702785,-0.095768064
7.9667063,-4.6818614,-1.0845734
7.1383123,-4.5801077,-2.4744074
8.438364,-5.8023477,-4.1264067
9.973047,-7.5764513,-5.1918263
11.377247,-8.965088,-4.9416323
7.654263,-5.398925,-3.930082
9.667787,-6.4392056,-5.410896
8.537724,-4.6399627,-3.8235402
7.762002,-1.6950948,-3.1723173
7.231686,-0.5231331,0.18315643
5.6120086,0.025139118,4.7907977
5.971139,-0.985214,4.2796354
7.5405383,-4.1922474,1.4927847
7.2065473,-2.9604304,-0.30166942
7.6267295,-4.808754,-3.8833952
10.126276,-8.431181,-7.976283
11.522096,-11.486182,-8.428787
10.8182,-11.5616,-7.53575
5.659893,-5.068525,-5.7808
9.572019,-6.4188547,-4.1299977
8.104373,-5.7269306,-3.052607
8.622718,-2.1045034,-2.3582888
9.424775,-0.89662856,-1.2318168
9.151836,0.14963761,0.52073884
7.275979,1.5071499,1.9321208
6.8103065,1.0714053,0.39863458
6.9862804,-0.6667852,-0.6356605
7.028179,-0.7194576,-2.0135236
6.7013707,-2.56419,-3.6164417
8.231265,-4.63278,-5.637148
10.17416,-6.945579,-6.951565
11.801021,-11.299435,-7.4723034
7.9511437,-8.632295,-5.1463366
7.0820484,-4.253299,-2.1057005
9.424775,-9.048885,-2.112883
9.040505,-7.2747817,-1.9333179
8.579621,-3.039439,-1.8602947
8.498219,-1.8375498,-1.5646108
7.101202,-0.40581718,0.05746084
7.0186024,-0.36032736,0.17238252
8.881291,-3.2561142,0.1316811
6.467936,-2.5115175,-0.5398925
7.9367785,-2.8263552,-1.7729063
8.360553,-4.735731,-3.6942532
8.273164,-5.66109,-6.247669
9.379285,-7.005434,-7.4806833
8.08881,-6.969521,-7.6494746
7.0449386,-4.1000705,-5.852626
7.477092,-2.4037786,-3.442862
9.598354,-3.7792473,-2.3175871
8.052897,-2.6779146,-1.0618285
7.5932107,-2.292448,-1.1348516
7.9367785,-2.4672248,-1.6843209
8.544906,-2.634819,-2.6635494
9.179369,-3.3614593,-2.1092918
9.471462,-4.0306387,-0.81043726
9.202114,-5.103241,-0.24301147
9.050082,-5.7640405,-0.61291564
9.214086,-6.145916,-1.2449849
8.86932,-5.849035,-1.4401124
8.423999,-5.3247046,-1.2880806
7.9942393,-5.118803,-0.93972415
8.231265,-5.1200004,-0.51954174
7.675811,-4.867412,-0.5243302
7.0784574,-4.722563,-0.80804306
8.061277,-4.6662993,-1.353921
9.255983,-4.035427,-1.899799
9.4295635,-3.2225955,-2.079364
9.180567,-3.0992942,-2.1883004
8.9602995,-3.1986535,-1.7681179
8.807071,-3.2740707,-1.2808979
8.910022,-3.4596214,-1.5275006
9.172187,-3.752911,-1.8459295
9.077616,-4.214992,-2.0087352
9.782708,-4.8614264,-2.0254946
9.340978,-4.7884035,-1.7645266
9.038112,-4.8781857,-1.5251064
8.461109,-6.171055,1.7836803
8.75799,-4.6962266,-1.2126632
8.955511,-4.7860093,-1.340753
7.991845,-4.793192,-0.6835446
7.217321,-4.201824,-1.0965444
7.9224133,-4.735731,-0.5470751
8.607155,-3.8786068,-0.6404489
7.9966335,-3.5194764,-0.1376666
8.036138,-3.1304188,-0.24301147
8.305486,-2.743755,-0.5638345
7.9451585,-2.3570917,-0.1388637
8.588001,-2.2254105,-0.029927522
8.678981,-1.9776106,-0.37349546
8.941146,-1.8339585,-0.415394
9.385271,-2.2948422,-0.3878607
9.518148,-2.6192567,-0.33638534
9.576807,-2.7281928,-0.51355624
9.299079,-2.8886044,-0.56982
9.446322,-3.3075895,-0.6955156
9.295488,-3.7684734,-0.8487445
9.543288,-4.1359835,-0.7469909
9.398438,-4.4939165,-1.6304513
9.425972,-5.3462524,-1.9321208
8.651448,-5.705383,-2.2182279
7.9152308,-5.011064,-2.6862943
6.2129536,-5.801151,-1.5658079
7.153875,-6.319495,-1.6376339
9.303867,-5.7879825,-1.982399
8.880095,-5.8454432,-2.1667526
8.962694,-5.8083334,-2.5330653
9.202114,-5.567716,-2.9939492
9.619903,-5.33069,-3.2668881
9.054871,-5.2768207,-3.1268275
9.2787285,-4.6339774,-1.970428
8.407239,-4.501099,-0.23463176
7.3645644,-4.746505,0.04309563
7.619547,-4.510676,-0.18914193
7.5932107,-4.449624,-0.5386954
7.8948803,-4.285621,-0.90261406
8.093599,-4.0533834,-0.8858546
8.307879,-4.343082,-1.127669
7.917625,-4.5262384,-1.5933412
8.730456,-4.7860093,-1.9045875
8.488642,-4.799177,-1.5729905
8.573636,-5.2875943,-1.5023615
8.6334915,-5.675455,-1.5885528
8.8777,-5.6922145,-1.472434
8.688558,-5.529409,-1.0378864
8.477868,-5.439626,-0.6739678
8.582016,-5.4551888,-0.01436521
7.7464395,-5.2241483,1.863886
7.445967,-5.0014873,0.5231331
9.260772,-5.1798553,-0.6607997
9.622296,-4.6471453,-1.3359646
9.180567,-4.212598,-1.0833763
8.615535,-4.3658266,-0.09816227
8.901642,-4.5262384,0.2813187
8.910022,-3.846285,-0.30526072
8.311471,-3.5362358,-0.110133275
8.070854,-3.6296098,0.07182605
7.9451585,-3.892972,-0.12569559
9.099164,-4.0019083,-0.5793968
8.883685,-4.1000705,0.1376666
8.620323,-4.235343,-0.053869538
8.295909,-4.0414124,0.62967503
7.9008656,-4.1503487,1.6460136
7.7368627,-4.453215,1.7645266
8.24204,-4.5322237,1.2892777
8.931569,-4.471172,1.0881647
9.018958,-4.545392,1.1815386
8.807071,-4.739322,1.3503298
8.725668,-4.876989,1.4700398
8.754398,-4.9224787,1.5693992
8.773552,-4.8733974,1.6675615
8.901642,-4.936844,1.3970166
8.878897,-4.8638206,1.353921
8.684967,-4.8518496,1.2210429
8.39048,-4.7644615,1.198298
8.243237,-4.630386,1.2318168
8.200141,-4.557363,1.4389153
8.01459,-4.459201,1.7908629
7.702147,-4.4208937,1.8531121
7.5824366,-4.462792,1.9716251
7.5968018,-4.537012,1.8650831
7.7344685,-4.698621,2.055422
7.7667904,-4.97156,2.432509
7.465121,-5.2026005,2.6527755
7.3406224,-5.391742,2.7126305
7.3071036,-5.531803,2.610877
7.2807674,-5.7748146,2.207454
7.380127,-6.045359,2.5330653
7.395689,-6.203377,2.9855695
7.356185,-6.283582,3.4021606
7.21373,-6.4619503,3.4512417
6.979098,-6.501455,3.1352072
6.622362,-6.539762,2.6288335
7.103596,-6.9228344,2.2361844
7.3298483,-7.1059904,2.1308396
7.1550717,-7.2328835,2.1571758
6.8893156,-7.2592196,2.1200657
6.9479733,-7.349002,2.2110453
7.0688806,-7.529764,2.0386627
6.9407907,-7.505822,2.0171149
7.16824,-7.565677,1.8782512
7.1431007,-7.577648,1.5945383
7.277176,-7.381324,1.5574282
7.120356,-7.20535,1.7238252
6.6307416,-7.100005,1.8950106
5.8825536,-6.9120603,1.7633295
5.6407394,-6.7887588,1.543063
6.0704985,-6.7839704,1.3838485
6.801927,-6.793547,1.2282255
7.6147585,-6.841431,1.1671734
7.856573,-6.895301,1.2437878
7.4830775,-6.8569937,1.3455414
6.8007298,-6.793547,1.3922282
6.326678,-6.92044,1.2892777
6.089652,-7.0461354,1.0019734
5.925649,-7.1742253,0.7445967
6.0238113,-7.3418193,0.5231331
6.2009826,-7.5046253,0.30286652
6.4392056,-7.6123643,0.15083471
6.767211,-7.753622,0.260968
7.1502833,-7.7811556,0.35793316
7.231686,-7.5908165,0.25977087
7.053318,-7.4028716,0.4213795
7.0664864,-7.3083005,0.6607997
6.7600284,-7.1646485,0.6380547
6.671443,-7.0186024,0.7254431
6.815095,-6.9348054,0.8331822
6.8306575,-6.8222775,0.90021986
6.791153,-6.7923503,0.89303726
6.82946,-6.7959414,0.62608373
7.061698,-6.8222775,0.7302315
7.2604165,-6.7839704,0.80325466
7.2592196,-6.8605847,0.80804306
7.27957,-6.894104,0.93373865
7.382521,-6.694188,1.1061212
7.28795,-6.50744,1.0702082
7.5788455,-6.5577183,1.0953473
7.53575,-6.575675,1.0702082
7.404069,-6.6415157,1.1025299
7.583634,-6.919243,1.364695
7.40766,-7.27957,1.1935096
7.4591355,-7.541735,0.8678981
7.165846,-7.2580223,0.8319851
6.987478,-7.4088573,1.1121067
6.211756,-7.40766,1.1528081
5.7784057,-7.289147,1.1575965
6.217742,-7.5429325,0.23343466
6.2704144,-6.9623384,0.18794483
6.221333,-7.153875,0.21308395
6.019023,-7.2628107,0.6751649
6.0441623,-7.338228,1.0450691
6.326678,-7.6650367,1.283292
6.6642604,-7.6829934,1.2617443
6.817489,-7.5213847,1.4377182
6.930017,-7.8146744,1.1623849
7.231686,-7.2592196,1.0953473
7.6614456,-7.356185,1.1767502
7.1191587,-7.357382,1.1994951
7.183802,-7.0844426,1.0905589
7.2209125,-6.979098,0.973243
7.2005615,-6.779182,0.9864111
7.1047935,-6.7444663,0.8702923
6.811504,-6.781576,0.89064306
6.6103907,-6.7648168,0.8738836
6.4990606,-6.670246,0.82240826
6.3542113,-6.659472,0.5758055
6.4404025,-6.8557963,0.33279404
6.573281,-7.0724716,0.06943185
6.611588,-7.2065473,0.050278235
6.5840545,-7.086837,0.3184288
6.4008985,-6.777985,0.82599956
6.029797,-6.5445504,1.091756
5.816713,-6.564901,1.1013328
5.920861,-6.787562,1.1719618
6.242881,-6.944382,1.1324574
6.8067155,-7.156269,1.2521675
7.088034,-7.351396,1.3838485
7.1047935,-7.422025,1.4891934
6.8282633,-7.180211,1.7393875
6.537368,-7.052121,1.7585411
6.329072,-6.8306575,1.532289
6.241684,-6.501455,1.3850456
6.2632318,-6.471527,1.3180081
6.351817,-6.591237,1.4425066
6.289568,-6.5828576,1.4030021
6.2524576,-6.599617,1.1264719
6.293159,-6.685808,0.7410054
6.443994,-6.6882024,0.5315128
6.7013707,-6.8773446,0.7697359
6.667852,-7.0569096,1.1336545
6.5241995,-6.991069,1.4736311
6.479907,-7.1023993,1.0103531
6.655881,-7.1622543,0.038307227
7.463924,-7.123947,-0.7541735
8.024167,-7.121553,-0.79487497
7.9822683,-7.1059904,-0.6823475
7.5165963,-6.987478,-0.17477672
6.879739,-6.7085533,0.32561144
6.3589997,-6.637924,0.8559271
6.429629,-6.839037,1.1791444
6.851008,-6.903681,1.4209588
6.3362546,-6.467936,1.9201498
5.708974,-6.2225304,1.8746599
5.5162406,-6.0046577,1.6160861
5.7843914,-5.693412,0.9600749
6.5146227,-5.3282957,-0.053869538
7.249643,-5.064934,-0.59735334
7.553706,-4.7309427,-1.5610195
7.6387005,-4.3167458,-2.0697873
7.6770077,-4.1216183,-2.3307555
8.391677,-4.2221746,-1.7836803
8.451532,-4.2413282,-2.112883
7.657854,-4.3035774,-2.1045034
7.349002,-4.4639893,-2.4744074
7.562086,-4.677073,-2.4863784
7.5692687,-5.1523223,-2.4660277
7.395689,-5.9723363,-1.5382746
7.16824,-6.8402343,-1.2090719
6.853402,-7.3083005,-1.4425066
6.375759,-7.2867527,-1.4425066
5.6922145,-7.4232225,-1.7190368
3.7660792,-8.184579,-3.1866825
4.584896,-9.509769,-1.1145009
3.3028011,-8.431181,-1.8579005
3.678691,-8.863335,-3.705027
5.282806,-10.777499,-2.3762453
7.632715,-12.0248785,-4.417302
8.293514,-11.247959,-5.1966147
8.380903,-9.759963,-4.900931
5.3139305,-7.7464395,-3.822343
4.1383777,-7.953538,-4.2580876
5.092467,-6.805518,-5.269638
5.638345,-4.9081135,-5.592855
4.6902413,-4.8279076,-5.3462524
4.3358994,-6.609194,-5.889736
4.3263226,-6.757634,-6.4224463
3.204639,-7.8050976,-7.04015
5.2540755,-10.169372,-8.23366
6.8127007,-8.36175,-12.316971
8.039729,-7.607576,-14.257471
5.7855883,-8.317456,-10.245986
3.1555579,-7.3992805,-9.1829605
3.13401,-6.2608376,-9.31943
2.1787236,-5.639542,-10.809821
3.2597055,-5.3713913,-11.405977
1.3012487,-4.1695023,-5.8933277
0.025139118,-5.3259015,-1.1575965
0.830788,-5.5856724,-0.8810662
3.6104562,-4.357447,-3.2692823
5.2684407,-4.185065,-7.1861963
4.868609,-5.237316,-9.498995
5.019444,-5.639542,-7.8517847
5.45878,-4.9308586,-5.5006785
4.914099,-4.5621514,-5.3139305
5.391742,-5.281609,-7.1981673
5.189432,-5.1607018,-6.2225304
5.41329,-4.900931,-5.6203885
6.5469446,-5.3247046,-5.543774
6.135142,-4.903325,-5.318719
5.1379566,-4.751293,-5.389348
6.2345014,-5.127183,-5.183447
6.337452,-4.608838,-5.1607018
4.7070007,-4.8626237,-5.2480903
5.457583,-4.7405195,-5.7843914
5.6682725,-4.554969,-6.7624226
7.001843,-5.055357,-7.751228
7.49026,-4.5274353,-7.499837
6.4978633,-5.3199162,-6.56131
6.563704,-4.9655743,-4.759673
7.837419,-4.4005427,-4.272453
6.8665705,-4.39336,-3.7565024
5.9148755,-3.8139634,-2.3259668
7.043741,-3.3925838,-1.5622166
7.475895,-3.645172,-2.6551697
5.9639564,-3.1016884,-4.4125137
6.8785415,-2.7688942,-4.8123455
6.5684924,-3.38181,-3.7181952
5.6766524,-3.570952,-3.4021606
4.060566,-3.265691,-4.325125
4.8638206,-3.7852328,-5.7736173
12.531252,-9.54209,-4.331111
15.111004,-5.245696,-2.480393
7.4507556,-3.7684734,-1.0570401
4.2940006,-4.948815,-1.9309237
3.359065,-4.200627,-2.7090392
5.357026,-5.032612,-5.9807158
7.0904284,-3.9803603,-6.578069
8.528147,-5.092467,-8.169016
7.94037,-7.4327993,-7.952341
5.5868697,-4.485537,-6.041768
5.9244523,-4.1359835,-6.432023
7.487866,-4.489128,-3.4715924
6.787562,-3.0011318,-3.5326445
7.777564,-3.4799721,-5.947197
6.9946604,-4.209007,-8.191761
7.833828,-6.719327,-6.555324
7.8876977,-5.5258174,-4.799177
6.405687,-3.630807,-3.3291376
5.5988407,-4.459201,-2.944868
6.23091,-5.1571107,-4.3155484
7.326257,-4.5896845,-3.9959226
7.1155677,-5.151125,-4.185065
7.419631,-4.721366,-4.471172
6.977901,-4.2784386,-3.551798
7.9810715,-4.331111,-2.954445
8.772355,-4.473566,-3.1004913
8.495825,-4.297592,-3.4368765
8.350976,-4.6100354,-2.9747956
9.285912,-4.0162735,-2.372654
8.218098,-3.9372647,-1.3551182
8.14268,-4.7656584,-1.5598224
8.148665,-4.687847,-2.0626047
8.191761,-5.1930237,-1.9560628
8.292317,-5.3833623,-0.94211835
8.208521,-6.1100025,-0.712275
8.631097,-6.2524576,-0.35913026
8.66701,-6.054936,-0.39504328
8.504205,-5.6658783,0.41060558
8.273164,-5.595249,0.5530606
7.7572136,-5.5102553,0.47165772
7.85777,-5.898116,0.2765303
8.461109,-6.161478,-0.50278234
8.640674,-5.7604494,-1.0630256
8.171411,-5.5389857,-0.91458505
8.8884735,-6.8605847,-0.961272
9.317036,-7.0485296,0.10654198
9.044097,-6.9120603,0.20470424
8.7292595,-7.052121,-0.7314286
8.172607,-7.5046253,-1.1073183
8.548497,-8.190564,-1.1444284
8.965088,-8.325836,-1.0773908
8.871715,-8.067263,-0.60214174
8.438364,-7.7907324,-0.1436521
8.202535,-7.6626425,-0.08140286
8.8645315,-7.5453267,-0.6919243
9.528923,-7.117962,-1.6136919
9.805453,-6.7492547,-2.1535845
8.810662,-5.9639564,-1.3263878
7.726089,-5.3007627,-0.6440403
7.442376,-5.0601454,-0.47165772
7.3885064,-4.793192,-0.7254431
7.3106947,-4.76925,-1.2258313
7.491457,-4.868609,-1.5957354
7.6626425,-4.6806645,-1.6448165
7.5225816,-4.4759603,-1.638831
7.241263,-4.344279,-1.6304513
7.2185183,-4.2904096,-1.1731589
7.0820484,-4.212598,-0.8463503
6.907272,-4.132392,-0.5518635
6.9228344,-4.2185836,-0.37469256
7.101202,-4.3897686,-0.33638534
7.335834,-4.6806645,-0.5494693
7.6650367,-5.0601454,-0.7170634
7.739257,-5.246893,-0.9816227
7.917625,-5.422867,-1.0953473
8.232463,-5.7604494,-1.2330139
7.97748,-5.969942,-1.3275849
7.565677,-6.0118403,-1.186327
7.383718,-6.149507,-0.9995792
7.2065473,-6.291962,-0.8774749
7.1191587,-6.2883706,-0.6512229
6.943185,-6.278794,-0.51834464
6.623559,-6.203377,-0.5422867
6.232107,-6.0285997,-0.5518635
5.744887,-5.771223,-0.45489833
5.979519,-5.981913,-0.46806642
6.4583592,-6.4104753,-0.78050977
6.7468605,-6.5565214,-0.9780314
6.6283474,-6.5325794,-1.1683705
6.566098,-6.567295,-1.1899183
7.243657,-7.2628107,-1.0534488
7.514202,-8.050503,-0.9564836
7.7224975,-8.431181,-0.7015011
7.8469963,-8.537724,-0.47285482
7.8027034,-8.550891,0.007182605
7.739257,-8.497022,0.5566519
7.37055,-8.286332,0.9995792
6.7887588,-7.762002,1.2258313
6.3482256,-7.264008,1.3623008
5.995081,-6.909666,1.5705963
5.8813562,-6.70975,1.6962919
5.831078,-6.5804634,1.8794483
5.8693852,-6.4739213,1.863886
6.172252,-6.5445504,1.8974048
6.399701,-6.6905966,2.0254946
6.531382,-6.8330517,2.184709
6.4404025,-7.041347,2.2361844
6.291962,-7.1981673,2.3139958
6.0525417,-7.181408,2.3953989
5.741296,-7.091625,2.5342624
5.446809,-7.016208,2.6288335
5.249287,-6.9000893,2.6048915
5.1355624,-6.7803793,2.4995465
5.2660465,-6.739678,2.1535845
5.493496,-6.5696893,1.5574282
6.0106435,-6.588843,1.2569559
6.76362,-7.1514807,1.1611878
7.111976,-7.6602483,1.4449008
7.466318,-8.046912,2.0638018
7.299921,-8.051701,2.3678656
7.5429325,-7.7919292,2.56419
7.6015906,-7.439982,2.3020248
6.6642604,-6.5325794,2.267309
6.483498,-6.232107,2.1080947
6.9479733,-6.253655,1.8136078
7.586028,-6.066907,1.1875241
8.127118,-5.9400144,0.9540894
8.086416,-6.017826,0.8343793
8.123527,-6.089652,0.9947908
8.003817,-5.886145,1.0702082
8.074445,-5.767632,1.0737995
8.039729,-5.683835,0.8798691
8.095993,-5.710171,0.62967503
8.248025,-5.708974,0.39743748
8.336611,-5.707777,0.2717419
8.161834,-5.6419363,0.33039984
7.9631147,-5.650316,0.46567222
7.8039002,-5.6227827,0.5267244
7.7105265,-5.686229,0.6859388
7.762002,-5.8238955,0.6943185
7.848193,-5.872977,0.6835446
7.953538,-5.875371,0.6847417
7.9990277,-5.932832,0.6691794
8.018182,-5.9926867,0.7410054
7.8446016,-6.0345855,0.8391677
7.7452426,-6.077681,0.8714894
7.6734166,-6.0836663,0.8343793
7.7105265,-6.1746464,0.81043726
7.6267295,-6.2752028,0.8367735
7.562086,-6.2871737,0.93373865
7.5046253,-6.301539,1.0271125
7.429208,-6.256049,1.0402806
7.4148426,-6.1542954,0.93373865
7.511808,-6.129156,0.94930094
7.5561004,-6.131551,0.9816227
7.469909,-6.019023,0.9552865
7.5453267,-5.971139,0.9959879
7.7201033,-5.9926867,1.0486604
7.823054,-6.0465565,1.127669
7.8853035,-6.0860605,1.13964
7.8649526,-6.039374,1.2126632
7.807492,-5.9519854,1.3311762
7.621941,-5.8933277,1.4508862
7.548918,-5.839458,1.376666
7.714118,-5.8885393,1.2521675
7.8422074,-5.981913,1.1300632
7.789535,-6.117185,1.0546459
7.703344,-6.1507044,0.9995792
7.619547,-6.2979474,1.0319009
7.717709,-6.5349736,1.1827357
7.654263,-6.7324953,1.3862427
7.5333557,-6.849811,1.5442601
7.49026,-6.8653736,1.6759412
7.349002,-6.752846,1.6639702
7.309498,-6.5110316,1.6484078
7.395689,-6.266823,1.448492
7.6243353,-5.9388175,1.508347
7.6602483,-5.6586957,1.5490485
7.8326306,-5.457583,1.6304513
7.776367,-5.1966147,1.8267759
7.4711065,-5.1810527,1.9488802
7.4088573,-5.1080294,1.9405005
7.2089415,-4.911705,1.8794483
7.156269,-4.6830587,1.9393034
7.321469,-4.5884876,1.9776106
7.597999,-4.435259,2.0817583
7.5225816,-3.9755719,1.6891093
7.4627266,-3.5326445,0.91697925
7.7344685,-3.1711202,0.17477672
7.9391727,-3.0669725,-0.61770403
8.3821,-3.2620997,-1.6124948
8.947132,-3.618836,-2.0853498
8.239645,-3.894169,-2.6671407
7.7727757,-4.3275194,-2.7353754
7.6267295,-4.7800236,-2.5689783
7.37055,-5.2026005,-2.0901382
7.2628107,-5.5605335,-1.8986019
7.2927384,-6.172252,-2.1559787
7.103596,-6.791153,-2.694674
7.4974427,-7.237672,-2.4648306
7.964312,-7.9667063,-2.099715
7.559692,-8.541314,-2.007538
6.9228344,-8.829816,-1.9931729
7.371747,-9.3182335,-1.1085154
7.4232225,-9.461885,-0.60453594
7.074866,-9.607931,-1.0139444
7.180211,-9.667787,-1.3826514
7.6015906,-9.097966,-1.115698
7.5644803,-8.647857,-0.78649527
7.6147585,-8.323442,-0.641646
7.074866,-8.854955,-0.4141969
7.7967176,-8.822633,-1.8100165
8.930372,-7.3885064,-1.9141643
8.744822,-7.4962454,-2.9879637
8.74123,-7.681796,-2.966416
7.3310456,-6.5577183,-1.4568717
6.479907,-5.971139,-1.2126632
7.141904,-6.1183825,-0.9744401
7.2065473,-5.5868697,0.25737667
6.2524576,-4.9176903,0.47046062
7.631518,-4.961983,0.033518825
7.735666,-4.4580035,-0.33758244
7.393295,-4.5920787,0.18435353
7.9583263,-4.578911,0.93254155
7.86615,-4.26527,0.8415619
8.209718,-4.322731,0.830788
8.365341,-4.2999864,0.5662287
8.53892,-4.119224,0.3854665
8.8645315,-4.0414124,0.439336
8.846576,-3.9085343,0.79367787
8.579621,-3.7433343,0.8810662
8.641871,-3.477578,0.8451532
8.872911,-3.289633,0.61650693
9.015367,-3.1352072,0.5327099
9.018958,-3.0478187,0.30166942
8.905233,-3.0813377,0.11851298
8.932767,-3.2202013,-0.272939
8.969876,-3.3913867,-0.0023942017
8.883685,-3.7074213,0.08020575
8.480263,-4.012682,0.017956512
8.504205,-4.132392,-0.02873042
8.628703,-4.3239284,-0.4213795
8.8645315,-4.5262384,-0.5626374
9.029732,-4.545392,-0.9528923
9.045294,-4.396951,-1.6412252
8.734048,-4.4927197,-2.4157495
8.808268,-4.7500963,-2.6898856
8.293514,-4.844667,-2.7988217
7.926005,-4.712986,-2.835932
7.7224975,-4.6722846,-2.8167782
7.1490865,-4.746505,-3.1004913
7.2628107,-5.0840874,-3.1854854
7.314286,-5.5868697,-3.1244333
7.394492,-6.4140663,-3.4632127
7.524976,-6.9503675,-4.1252093
7.514202,-7.1143703,-4.735731
7.965509,-7.33344,-4.84347
7.404069,-6.9288197,-4.912902
6.894104,-5.807136,-5.213374
7.2568254,-5.0960584,-5.523423
9.370906,-4.2664676,3.1591492
8.176199,-3.809175,10.662578
9.28232,-2.3523033,4.0282445
6.5720835,-0.32441434,-1.1432313
6.980295,-3.1411927,-4.152743
6.245275,-5.4288526,-3.8391025
8.206126,-8.998607,-8.237251
6.805518,-7.717709,-11.662156
7.6123643,-7.4615297,-13.334506
6.7360864,-7.1514807,-13.406332
6.6295447,-6.3482256,-11.224017
6.053739,-5.449203,-1.4449008
2.7665,-3.537433,2.2577322
8.820239,-2.2505496,0.79128367
9.53012,1.5765818,1.6603789
8.796297,0.21188685,1.2294226
6.68102,-2.540248,-0.7086837
4.8374844,-3.0657754,-3.1423898
7.920019,-5.3259015,-5.213374
8.226477,-9.870096,-9.709685
9.956287,-12.316971,-13.530831
8.500613,-7.8146744,-15.603012
8.632295,-5.5246205,-8.2516165
5.233725,-5.9041014,-5.628768
5.8705826,-2.657564,-3.1052797
4.911705,0.89423436,6.63553
7.49026,-0.20470424,5.6802435
7.5094137,0.9516952,2.3139958
6.6546836,-0.11252748,-0.2908955
3.7337575,-2.2613235,-2.7234044
6.443994,-8.009802,-7.5704656
12.723985,-13.8241205,-12.512098
10.3692875,-11.379641,-14.838065
4.7560816,-7.1275387,-15.45577
5.828684,-5.837064,-9.212888
6.6056023,-6.027403,-8.560468
4.110844,-2.2601264,-3.8031895
5.631162,-0.7625532,7.4962454
6.683414,0.22385786,6.319495
9.469068,-0.10055647,4.924873
6.930017,-1.2665327,1.5454572
4.924873,-3.0585926,-5.2145715
7.678205,-9.386468,-10.2974615
14.72434,-15.709555,-16.461334
8.355764,-7.989451,-20.804415
7.2233067,-7.0712748,-13.430274
6.029797,-7.61835,-6.670246
3.4799721,-2.0027497,0.17238252
2.0925324,1.0342951,9.041702
6.159084,0.6775591,10.29387
8.986636,-0.1592144,6.7839704
7.4004774,-0.8319851,2.2996306
3.7205894,-3.2082303,-5.309142
11.987768,-13.117831,-11.593922
14.767436,-16.332047,-23.672668
7.905654,-6.3769565,-21.461624
6.4224463,-8.444349,-7.121553
0.36152446,-2.9855695,-2.8107927
-0.81642276,3.9193082,8.289924
3.3901896,2.7748797,10.542868
11.061212,-3.2728736,7.1083846
9.124303,-5.09127,0.9959879
8.115147,-8.312668,-3.3243492
14.0312195,-12.66413,-10.779893
9.667787,-9.622296,-26.082434
9.514558,-6.337452,-23.537397
9.5732155,-5.8945246,-15.404294
7.505822,-4.7285485,-5.1116204
7.795521,-2.3894134,-3.0442274
7.65546,1.0354922,-2.2697031
7.5094137,0.80564886,2.0829554
6.823475,-0.1352724,2.64679
4.6842556,0.7469909,-0.5781997
4.3394904,0.45130703,-2.0602105
5.363012,-0.08259996,-4.8745947
6.861782,-1.2306197,-5.791574
6.827066,-2.565387,-4.9320555
6.1770406,-2.565387,-3.596091
6.849811,-3.0657754,-3.465607
7.541735,-4.096479,-3.6008794
8.104373,-5.0481744,-3.8055837
8.329428,-5.645528,-3.86903
8.39886,-6.0106435,-3.513491
7.9116397,-6.2524576,-3.5877113
8.080431,-6.459556,-4.072537
8.540117,-6.39611,-4.5777135
8.143877,-5.5868697,-3.9803603
7.2711906,-4.477157,-3.1998506
6.9479733,-3.204639,-2.8814218
7.135918,-1.9512744,-2.134431
7.550115,-1.5466543,-0.4369418
8.495825,-2.1775265,0.1436521
8.72088,-3.264494,-0.09816227
9.667787,-3.3842041,1.5562311
9.751583,-5.445612,3.6355953
6.3566055,-5.9687448,-1.590947
6.093243,-4.997896,-8.596381
9.533711,-8.480263,-13.643358
11.932701,-6.7444663,-18.195932
10.316615,-2.9460652,-12.000936
5.3139305,-3.1830912,-8.09719
5.8801594,1.7717092,1.0498575
5.425261,5.559336,14.882358
8.317456,4.036624,12.808979
7.1610575,0.059855044,8.036138
5.499481,-2.280477,1.4640543
7.6267295,-6.2285156,-16.712725
13.464991,-14.773421,-22.998701
15.136143,-12.497733,-28.00378
9.516952,-8.139089,-20.709845
6.0860605,-7.560889,-9.691729
1.7884687,1.1887212,-2.0410569
6.0118403,0.15322891,17.29691
5.8909335,-0.34715924,15.916653
4.546589,-3.5422213,12.61864
3.7984009,-6.1507044,4.984728
6.373365,-5.744887,-18.87828
12.366052,-11.101913,-22.618023
12.087128,-9.985018,-25.76161
6.381745,-5.6910176,-16.274586
6.5361705,-6.6870055,-0.037110128
6.611588,-2.3630772,-1.2844892
11.208455,-3.5098996,6.564901
7.157466,-2.565387,7.565677
9.818622,-2.837129,2.4001873
8.566454,-1.8411411,-0.23104046
5.0517654,-2.2385786,-3.9432502
7.513005,-3.3746274,-7.345411
11.362882,-3.0597897,-11.506534
12.157756,-2.7832594,-12.893973
11.8896055,-3.833117,-11.337742
9.445126,-4.083311,-8.413225
7.8410106,-4.88058,-5.3127337
10.220847,-6.9719152,-1.4281414
9.149442,-8.358158,0.5374983
6.931214,-8.6334915,0.4177882
5.511452,-5.5126495,-0.79487497
4.0186677,-2.1033063,-1.0414777
3.8762126,-3.3363202,0.830788
4.009091,-5.368997,0.3878607
3.145981,-2.825158,1.685518
3.1543608,-1.9991584,5.255273
6.9958572,-5.530606,9.27394
9.660604,-6.385336,8.64666
9.896433,-4.6710877,5.3558292
10.41358,-6.247669,4.095282
8.282741,-5.571307,2.6276364
9.471462,-1.7980455,3.4763808
6.975507,-3.5314474,7.0593038
5.959168,-3.1711202,9.068039
5.0374002,-4.763264,9.817424
3.690662,-6.921637,12.0093155
4.607641,-3.039439,11.5316725
6.455965,-2.4732103,8.722076
7.2592196,-2.2409728,4.8243165
6.14831,-1.2653356,8.803479
2.3403323,-2.005144,8.89805
-0.32680854,-1.448492,4.4340615
0.37588966,-2.12246,3.4237084
1.1731589,-4.0545807,0.79367787
6.945579,-6.721721,-6.7324953
12.277467,-6.4284315,-10.036493
10.670957,-5.3043537,-10.70687
7.9427643,-5.708974,-8.334216
8.154651,-7.277176,-7.428011
11.224017,-8.6095495,-8.243237
9.703699,-7.4483614,-7.9667063
7.357382,-6.2740054,-5.2409077
8.827422,-6.566098,-2.9580362
7.267599,-4.8662148,-4.841076
6.9371996,-2.5438392,-6.256049
8.656237,-0.017956512,-3.9624038
4.5034933,1.0175357,1.210269
9.300277,-0.79966336,1.13964
12.741941,-0.2669535,2.043451
7.4591355,-1.827973,5.4743423
5.234922,-5.0721164,2.919729
5.5820813,-4.4448357,0.06703765
5.485116,-6.233304,-3.110068
8.51857,-11.007342,-9.338584
7.398083,-11.394006,-12.914324
6.196194,-10.785878,-13.1238165
6.537368,-10.626664,-12.643779
5.671864,-8.622718,-8.765172
5.554548,-6.4344172,-5.353435
6.6247563,-2.8311436,-0.14724341
8.283937,-0.9804256,8.683769
9.466674,-1.4257472,6.8641763
8.663419,-1.9129672,1.2150574
7.928399,-2.5127146,-1.8183962
4.787206,-4.361038,-7.326257
9.555259,-11.087548,-11.625047
10.891224,-13.110648,-16.026787
6.459556,-8.051701,-12.94066
4.378995,-4.891354,-9.617508
6.8318543,-5.4312468,-5.957971
6.5098343,-1.3371617,0.9804256
6.187814,0.9911995,7.6027875
6.619968,1.0163386,4.522647
7.5704656,-0.5710171,0.29448682
6.2823853,-2.0805612,-2.1751323
5.379771,-4.1958385,-3.4596214
7.77517,-10.472239,-5.849035
10.817003,-15.640122,-7.2233067
9.589975,-13.376405,-14.544775
6.495469,-8.301894,-13.431472
5.687426,-3.690662,-6.4511766
6.1159883,-6.0764837,-4.501099
4.3179426,-4.548983,-1.9357121
5.49589,-0.90261406,-1.353921
7.5165963,0.90859956,-0.35434186
8.64666,2.243367,1.4891934
7.914034,2.3080103,-0.19752164
7.2233067,-0.5518635,-1.7310078
7.1275387,-1.9177556,-3.3243492
8.11395,-3.3674448,-6.149507
10.334572,-6.0561333,-9.179369
10.990582,-8.7532015,-8.237251
9.26556,-9.103952,-7.5800424
5.935226,-7.8493905,-6.6774287
7.03177,-6.9527617,-5.255273
8.461109,-5.815516,-1.6747441
8.234857,-7.619547,-1.8411411
5.5365915,-6.585252,-0.5410896
6.445191,-6.1387334,0.6895301
6.4511766,-5.602432,-0.8750807
7.466318,-4.8458643,-1.5717934
9.044097,-4.6603136,-1.340753
8.208521,-4.226963,-1.7166426
6.609194,-3.8606503,-1.8327614
6.859388,-4.1120415,-2.5629928
7.228095,-3.9252937,-2.694674
8.477868,-4.209007,-3.4596214
9.3421755,-4.3287168,-3.90614
9.012972,-3.965995,-3.1004913
7.4866686,-3.787627,-3.265691
6.75524,-4.2784386,-3.3494883
7.6494746,-4.642357,-3.108871
9.42238,-4.8362875,-2.834735
8.858546,-3.465607,-2.861071
7.369353,-3.6415808,-5.2516813
7.9032598,-4.450821,-6.2105594
8.67539,-4.4687777,-6.2859764
9.212888,-4.6160207,-4.631583
6.4978633,-2.8072014,-3.1435869
5.947197,-3.0322564,-3.763685
7.3645644,-2.954445,-2.7461493
7.896077,-1.1971009,0.92296475
7.0688806,-2.3678656,0.39504328
8.670602,-3.0059202,-2.7377696
9.613917,-2.1775265,-3.1663318
10.364499,-3.393781,-3.7541082
9.583989,-4.5058875,-2.8287494
8.9842415,-5.171476,-0.724246
9.885659,-5.5282116,-0.8367735
9.842564,-4.606444,-2.0901382
8.780735,-3.5781345,-2.3822308
6.906075,-3.3674448,-4.289212
8.169016,-4.4556093,-1.6041151
9.130288,-5.5856724,-2.099715
9.922769,-4.808754,-4.092888
7.7919292,-4.4603977,-5.0996494
6.23091,-6.5122285,-5.3881507
5.9160724,-6.9850836,-5.3127337
6.3422403,-6.14831,-4.189853
7.193379,-5.8203044,-2.054225
7.1395097,-5.7365074,-1.2785037
9.267955,-6.159084,-1.8351556
9.137471,-5.6658783,-1.8950106
7.465121,-4.923676,-0.5805939
7.2304893,-5.662287,-0.79128367
7.693767,-5.103241,-2.0482395
8.163031,-4.0521865,-2.5510218
9.487024,-5.079299,-4.0426097
9.481039,-4.867412,-4.309563
9.702502,-4.0773253,-4.38498
9.896433,-3.5613751,-4.406528
7.8625584,-3.180697,-4.261679
10.333375,-3.1711202,-2.112883
8.763975,-2.2242134,-0.94211835
7.884106,-2.3439236,-1.1348516
8.365341,-2.7222073,-1.0749966
7.9427643,-2.8682537,-0.7757214
9.077616,-3.632004,-1.4939818
9.156625,-3.9468415,-1.6496049
7.961918,-3.9935284,-1.4437037
7.7811556,-4.092888,-1.6352397
8.465898,-4.5262384,-1.1013328
8.677784,-4.6950297,-0.9768343
7.9451585,-4.367024,-0.37588966
6.8749504,-4.2054152,0.11372458
6.3601966,-4.1395745,0.50158525
6.0836663,-4.003105,0.6955156
6.114791,-3.9636009,0.5398925
6.181829,-4.1718965,0.47405192
6.7241154,-4.996699,0.40222588
8.121132,-5.497087,-0.35553896
10.277111,-5.6467247,-1.7417817
11.186908,-5.543774,-1.827973
10.684125,-5.517438,-1.3323733
9.8437605,-5.3881507,-0.80086046
9.11712,-5.309142,-0.5770026
9.036914,-5.415684,-0.34835634
9.155427,-5.3498435,-0.089782566
8.8884735,-5.177461,0.12808979
8.292317,-5.118803,0.37469256
8.300697,-5.269638,0.5470751
8.189367,-5.3965306,0.15083471
8.079233,-5.2624555,-0.061052144
7.8266454,-5.085284,0.20829555
7.7691846,-5.2444987,0.6979098
8.127118,-5.6000376,0.5686229
8.3821,-5.6670756,0.24540567
8.368932,-5.695806,0.10534488
8.143877,-5.781997,-0.11851298
7.937976,-5.779603,-0.15322891
7.9726915,-5.659893,-0.110133275
8.929175,-5.4312468,-0.015562311
8.768764,-5.094861,0.24061728
8.15106,-5.0014873,0.48841715
7.788338,-4.960786,0.61052144
7.3106947,-5.0362034,0.7493851
7.1347213,-5.2899885,0.7457938
7.2029557,-5.535394,0.5554548
7.216124,-5.74369,0.50757074
7.180211,-6.017826,0.5398925
7.3406224,-6.3446345,0.60693014
7.5345526,-6.6103907,0.62368953
7.943961,-6.953959,0.62488663
8.175002,-7.2843585,0.6476316
7.9427643,-7.3873096,0.6931214
7.491457,-7.2867527,0.6751649
7.04015,-7.132327,0.6404489
6.7564373,-6.9587474,0.5279215
6.7265096,-6.8545995,0.45968673
6.757634,-6.7743936,0.51235914
6.8522053,-6.728904,0.61052144
6.909666,-6.694188,0.61530983
6.9407907,-6.7947445,0.842759
6.906075,-7.035362,0.94331545
6.921637,-7.1047935,1.009156
6.906075,-7.120356,1.0737995
6.7863646,-7.07726,1.1683705
6.5948286,-7.053318,1.2677298
6.409278,-7.0844426,1.3503298
6.2943563,-7.252037,1.4616601
6.2871737,-7.3525934,1.5179238
6.2009826,-7.4735007,1.7166426
6.078878,-7.669825,1.8794483
5.911284,-7.8050976,2.1308396
5.6922145,-7.823054,2.3092074
5.604826,-7.8493905,2.4612393
5.517438,-7.835025,2.622848
5.5006785,-7.8206596,2.6994624
5.401319,-7.78355,2.7605145
5.3223104,-7.8517847,2.8491
5.2157683,-7.9427643,2.9245174
5.2887917,-8.054094,3.016694
5.4563856,-8.146272,3.1435869
5.5365915,-8.087613,3.1555579
5.48751,-7.9583263,3.1531637
5.3474493,-7.869741,3.1184478
5.189432,-7.7667904,3.063381
5.1116204,-7.632715,3.003526
5.1666875,-7.6015906,2.9999347
5.2385135,-7.5692687,2.9364884
5.412093,-7.65546,2.8933928
5.519832,-7.6865845,2.8203697
5.590461,-7.843405,2.7365725
5.613206,-7.8709383,2.7353754
5.517438,-7.753622,2.6755204
5.4527946,-7.7703815,2.6527755
5.4863133,-7.8948803,2.6132712
5.5377884,-8.112753,2.6671407
5.7808,-8.323442,2.7569232
5.73531,-8.295909,2.9484594
5.626374,-8.1642275,2.9987376
5.4180784,-7.9786773,2.9999347
5.2181625,-7.8182654,2.8383262
5.1247888,-7.6746135,2.5953147
5.407305,-7.61835,2.3582888
5.9603653,-7.5572977,2.2529438
6.2249246,-7.5321584,2.1296425
6.3685765,-7.457938,1.9596541
6.319495,-7.2304893,1.7417817
6.26802,-7.055712,1.5658079
6.4032927,-7.029376,1.2916719
6.6079965,-7.015011,1.1575965
6.493075,-6.871359,1.1994951
6.4463882,-6.847417,1.2797008
6.3889275,-6.9288197,1.3156139
6.3745623,-6.963536,1.5155296
6.63553,-7.0712748,1.6843209
6.7480574,-6.9264255,1.7980455
6.655881,-6.8007298,1.7310078
6.600814,-6.8426285,1.6723499
6.703765,-6.8905125,1.5777789
6.8785415,-6.930017,1.5957354
6.8091097,-6.92044,1.5298948
6.6415157,-6.8557963,1.4089876
6.4164605,-6.872556,1.2665327
6.429629,-7.0820484,1.1085154
6.3470287,-7.2328835,0.9947908
6.2883706,-7.299921,0.8499416
6.283582,-7.4028716,0.6607997
6.319495,-7.443573,0.545878
6.338649,-7.4351935,0.439336
6.3087215,-7.5106106,0.4381389
6.3949127,-7.562086,0.44651863
6.4224463,-7.515399,0.5327099
6.4392056,-7.49026,0.59735334
6.4344172,-7.4950485,0.6619968
6.555324,-7.4854717,0.7769185
6.6403184,-7.4591355,0.8511387
6.742072,-7.466318,0.94211835
6.8402343,-7.5082164,0.94570965
6.7229185,-7.4507556,0.91099375
6.683414,-7.371747,0.91219085
6.5684924,-7.261614,0.8619126
6.563704,-7.1287355,0.724246
6.563704,-7.0365586,0.51355624
6.68102,-7.0365586,0.2705448
6.9371996,-7.1490865,0.12569559
7.0090256,-7.2149267,0.089782566
6.977901,-7.2807674,0.23343466
6.8761473,-7.386112,0.46208093
6.7384806,-7.4004774,0.5434838
6.505046,-7.237672,0.5746084
6.4978633,-7.2089415,0.5518635
6.6044054,-7.231686,0.427365
6.6067996,-7.1873937,0.46567222
6.6606693,-7.1730285,0.48602295
6.631939,-7.228095,0.427365
6.5720835,-7.229292,0.4285621
6.6295447,-7.2508397,0.39983168
6.6187706,-7.229292,0.44651863
6.721721,-7.21373,0.4345476
6.7013707,-7.2065473,0.4405331
6.6882024,-7.2340803,0.37469256
6.5577183,-7.3106947,0.36272156
6.489484,-7.3849154,0.320823
6.5864487,-7.41604,0.33997664
6.613982,-7.524976,0.3196259
6.551733,-7.6387005,0.2669535
6.5385647,-7.73806,0.12090719
6.602011,-7.8410106,0.089782566
6.6067996,-7.955932,0.02633622
6.5457473,-7.9092455,-0.027533319
6.611588,-7.8446016,-0.11611878
6.682217,-7.6530657,-0.24301147
6.6786256,-7.3406224,-0.2645593
6.6283474,-6.9982514,-0.33039984
6.5948286,-6.8007298,-0.32680854
6.579266,-6.7205243,-0.24899697
6.576872,-6.661866,-0.050278235
6.637924,-6.542156,0.027533319
6.70975,-6.341043,-0.04189853
6.777985,-6.1926026,-0.21068975
6.9982514,-6.105214,0.01436521
6.999449,-6.2249246,0.62967503
7.1431007,-6.482301,0.5386954
7.8469963,-6.5206084,0.6380547
8.201338,-6.494272,0.9600749
7.7560163,-6.518214,0.30885202
7.5525093,-6.2823853,-0.49200845
7.6841903,-5.3127337,0.18435353
8.110358,-5.009867,0.80205756
8.497022,-5.3103395,-0.5686229
8.7125,-5.104438,-1.5227122
8.815451,-4.8901567,-2.0171149
8.540117,-4.76925,-2.280477
8.295909,-4.643554,-2.6755204
7.6351094,-4.4879313,-2.9017725
6.909666,-4.333505,-2.5091233
6.5098343,-4.653131,-2.110489
6.5960255,-4.938041,-2.232593
6.4368114,-5.3043537,-2.5558102
6.682217,-6.039374,-2.7449522
7.0305734,-6.817489,-3.3363202
6.9407907,-7.620744,-3.9312792
6.242881,-8.273164,-4.140772
5.9843073,-8.808268,-2.9999347
5.2169657,-7.8733325,-4.346673
5.4743423,-7.884106,-3.4500446
6.769605,-8.121132,-3.2692823
7.123947,-7.6003933,-3.1878796
6.0381765,-7.097611,-2.846706
6.0848637,-7.465121,-2.801216
8.039729,-7.4735007,-1.8650831
7.4950485,-6.5744777,-0.11133038
6.6056023,-7.074866,0.2837129
8.416816,-7.381324,-1.091756
8.549694,-6.125565,-1.8543092
8.279149,-6.716933,-2.2613235
7.487866,-6.5457473,-2.1380222
7.3286514,-6.1626754,-2.099715
6.9491706,-5.8909335,-1.8650831
6.39611,-5.542577,-1.4784195
6.0681043,-5.425261,-1.7729063
5.9531827,-5.4504004,-2.0829554
6.4416,-5.3761797,-2.0614076
7.120356,-5.365406,-1.6460136
7.356185,-5.4863133,-1.2545617
7.374141,-5.4061074,-1.0845734
7.3202715,-5.2181625,-1.246182
7.4723034,-5.2923827,-1.6160861
7.9786773,-5.392939,-1.6867151
8.423999,-5.506664,-1.650802
8.564059,-5.580884,-1.5741876
8.459911,-5.6323595,-1.5047557
8.372523,-5.5880666,-1.4341269
8.407239,-5.5246205,-1.412579
8.3821,-5.5389857,-1.3239936
8.421604,-5.518635,-1.2354081
8.2037325,-5.461174,-1.2162545
7.9954367,-5.2684407,-1.2808979
8.237251,-5.007473,-1.7262194
8.39886,-4.7165775,-2.3092074
9.24521,-5.0613422,-3.016694
10.378864,-4.8901567,-3.7421372
10.605117,-4.361038,-4.289212
10.435128,-4.3538556,-4.935647
9.811439,-4.224569,-5.0960584
9.305065,-4.201824,-4.733337
9.1350765,-4.6902413,-3.9636009
8.883685,-5.0960584,-2.134431
7.5285673,-5.33907,-1.271321
7.0341644,-5.368997,-1.0773908
7.1945763,-5.459977,-0.7026982
6.587646,-5.6551046,-0.5386954
6.3302693,-6.0046577,-0.78290397
4.572925,-6.633136,-0.7098808
2.5342624,-9.355343,-3.323152
5.257667,-9.67856,-6.443994
9.370906,-7.49026,-6.279991
10.032902,-8.206126,-4.8877625
4.677073,-7.1191587,-3.7373488
3.9552212,-5.3498435,-5.4420204
7.8446016,-2.8874073,-1.1779473
7.5453267,-0.095768064,9.871294
5.1583076,0.80445176,6.945579
8.821436,-5.54138,0.90740246
6.4008985,-0.8319851,-1.1300632
5.485116,-1.3251907,-3.1399956
6.695385,-10.655395,-6.530185
12.825739,-14.78659,-13.043611
11.651382,-11.616667,-21.13362
8.907627,-4.8458643,-13.128605
8.269572,-7.807492,-10.996569
5.197812,-4.0174704,-3.4967315
3.870227,0.7350199,5.555745
2.8622682,3.9588125,17.275362
8.856153,0.8726865,3.8965633
4.859032,-3.478775,1.6244658
4.784812,-4.7297454,-0.9876082
6.543353,-9.783905,-12.50731
15.483302,-17.73864,-19.231424
13.839683,-13.463793,-24.905684
7.526173,-3.7337575,-12.265495
7.08564,-8.698134,-7.231686
3.9240966,-2.3714569,-6.993463
3.6655228,2.5474305,6.683414
0.8403648,3.1603463,20.379444
6.1985884,0.044292733,10.140641
2.1691468,-4.9284644,3.7600937
7.2580223,-6.63553,-1.910573
8.579621,-9.382876,-14.8512335
13.206416,-18.288109,-21.139605
10.324995,-14.630966,-28.093563
5.3881507,-2.0949266,-15.773001
6.979098,-8.446744,-9.433155
2.8299465,-1.0761937,-5.401319
4.1359835,1.9045875,7.7069354
1.745373,3.6236243,18.200722
7.8326306,-1.496376,12.156559
1.508347,-4.0342298,3.1004913
7.4471645,-8.058883,-5.6431336
7.639898,-9.749189,-14.602236
13.328521,-16.497248,-25.482685
10.007763,-13.296199,-25.780764
5.699397,-3.8869865,-15.142129
5.9603653,-7.358579,-7.9032598
0.8702923,1.1408371,-4.6232033
2.4361002,3.9671922,12.879608
2.0949266,4.5525746,15.090653
9.41879,-4.4687777,15.046361
2.610877,-4.0402155,0.51714754
6.113594,-6.637924,-5.270835
11.474212,-13.754689,-13.866019
16.031574,-17.963696,-28.373684
6.4643445,-10.1143055,-23.147142
6.1040173,-5.816713,-11.742362
4.6938324,-5.116409,-5.81791
0.32920274,4.0904937,2.0087352
2.3391352,4.1982327,21.699846
7.0102224,0.7110779,8.237251
5.6586957,-5.141548,5.7185507
6.0728927,-6.7708025,1.1432313
8.874108,-10.83496,-17.201141
15.592238,-18.13488,-24.370579
10.955867,-12.483368,-26.536135
5.997475,-3.66672,-13.747506
5.1786585,-6.6367273,-5.058948
1.4089876,2.1332338,0.8439561
0.11611878,5.177461,16.014814
3.5087025,2.0961237,11.36767
7.055712,-6.8557963,8.895657
4.8243165,-6.1938,1.9405005
5.90889,-6.932411,-13.516466
9.986216,-13.514071,-20.460848
15.421053,-17.028759,-30.973787
7.904457,-5.7736173,-21.854273
6.0082493,-6.576872,-10.83496
4.9763484,-5.6431336,-6.2584434
3.655946,1.9572599,2.2984335
1.1444284,4.453215,21.738153
4.3179426,3.1196449,8.397662
3.6391866,-5.1810527,9.040505
4.5022964,-5.020641,-0.045489833
6.673837,-7.819463,-19.663578
13.186066,-17.905037,-23.936031
13.807362,-16.411055,-30.742746
5.5820813,-3.9707835,-15.175648
5.674258,-8.462306,-8.717288
3.1256304,0.01436521,-4.8506527
0.130484,6.18542,10.647015
0.17956513,4.698621,15.465346
8.294712,-4.3179426,16.997635
1.3551182,-3.3554738,3.7134068
7.156269,-6.1566896,-2.1859062
11.264719,-14.97214,-13.5930805
14.245501,-15.118187,-32.4546
9.369708,-9.775525,-22.833502
6.9479733,-5.2564697,-15.217546
4.6351743,-6.042965,-4.6112323
2.7808652,1.3215994,2.1559787
3.0969,1.6005238,18.842367
4.8722005,1.970428,7.6506715
7.880515,-6.803124,8.055291
4.086902,-0.8439561,-1.7669208
8.311471,-7.1706343,-8.467094
6.933608,-9.662998,-16.613365
9.275137,-11.409568,-23.734919
4.213795,-6.8426285,-18.771738
8.130709,-3.8151605,0.1592144
6.742072,-6.2105594,-0.6464345
4.865018,-3.7684734,2.2720973
5.60722,-0.56982,1.8926164
9.039309,-4.0533834,-0.6368576
12.786234,-8.722076,-1.4281414
8.920795,-4.2185836,-6.8162923
8.688558,-1.5191209,-8.716091
8.394072,-4.1240125,-7.8649526
8.965088,-7.926005,-10.0903635
14.12579,-5.9160724,-12.955026
7.3190746,-0.533907,-6.5026517
5.592855,-3.9205053,-5.509058
6.6750345,-7.833828,-3.0813377
8.075643,-7.049727,-2.0626047
9.854534,-4.308366,-2.0925324
10.594342,-4.43885,-1.6280571
9.953894,-4.894945,-1.1683705
9.25359,-5.085284,2.0769699
4.975151,-2.6192567,0.1316811
1.115698,-1.0223241,-3.3925838
0.39983168,-1.4389153,1.0223241
3.2393548,-3.6954503,-0.027533319
3.9707835,-2.7581203,7.2819643
6.0860605,-4.0066967,10.959458
7.49026,-5.4204726,7.8912888
8.249222,-5.6646814,6.10282
11.45865,-7.892486,10.8469305
9.630676,-5.080496,8.990228
8.470686,1.804031,6.099229
6.9168487,-0.10654198,6.1890116
3.4919431,-3.774459,8.817844
2.5893292,-1.9153614,8.12233
4.7776294,-2.3822308,5.130774
7.651869,-4.0797195,3.9815574
6.587646,-3.9935284,4.5046906
5.0960584,-3.74094,1.8770541
6.1938,-4.650737,-0.23104046
8.528147,-5.8562174,-3.071761
11.0935335,-5.674258,-1.9788077
7.4591355,-4.4448357,-0.093373865
5.565322,-5.523423,-1.1923125
6.2823853,-5.697003,-4.8422728
7.7727757,-4.711789,-7.955932
6.647501,-3.8139634,-10.722432
8.483853,-4.3287168,-9.015367
8.191761,-5.0541596,-8.644265
6.361394,-4.156334,-9.038112
7.451953,-4.1240125,-7.867347
10.692505,-6.3829417,-4.71538
5.753267,-4.7070007,-5.6706667
2.7521348,-4.084508,-4.3754034
5.7520695,-4.0258503,-11.413159
2.542642,0.19512744,-12.217611
3.7205894,-1.8782512,-7.928399
10.492589,-5.9986725,-0.80325466
8.516175,-6.126762,-1.6220716
7.821857,-5.66109,-6.4763155
6.6427126,-2.1416135,-6.728904
3.003526,-2.0003555,-5.719748
8.7951,-6.9826894,-5.4623713
9.441534,-3.7229836,-2.8335378
6.9108634,-2.2649148,-2.540248
9.685743,-5.7903767,-3.0550013
8.469488,-4.3873744,4.4783545
6.5960255,-6.6103907,1.1959038
9.7958765,-7.0365586,-4.88896
8.415619,-0.92416185,-5.3007627
8.497022,-1.2366052,-3.738546
10.041282,-4.84347,-8.429984
10.676943,-2.6048915,-7.902063
9.431957,-1.3575124,-5.973533
7.3525934,-4.0078936,-6.005855
8.013393,-5.3941364,-4.8722005
9.166202,-4.8338933,-3.6487634
8.626308,-4.4759603,-2.220622
6.602011,-5.2660465,-1.246182
7.1407065,-6.4140663,-1.3515269
7.6494746,-5.9292407,-1.6627731
7.249643,-5.8801594,-1.8148049
6.169858,-6.393716,-2.2349873
5.433641,-5.8681884,-2.813187
5.6982,-6.918046,-2.6144683
6.5265937,-5.341464,-2.6431987
6.706159,-3.2082303,-3.3494883
12.034455,-3.6020765,-4.3023806
11.821371,-2.1392193,-2.5689783
7.680599,-1.4772224,-0.079008654
6.697779,-2.086547,1.6891093
7.702147,-1.9895816,2.042254
9.457097,-1.7357962,4.373009
8.34499,-2.6156654,3.7421372
7.81228,-4.8877625,5.5725045
8.708909,-4.7297454,1.9991584
10.534488,-2.2457612,3.9755719
10.496181,-4.155137,1.8375498
11.525687,-1.7561469,-0.60573304
11.224017,-1.3718776,-1.7118542
10.726024,-1.3204023,-5.8203044
8.076839,-3.1304188,-2.743755
6.054936,-5.2061915,-4.214992
7.4112515,-5.459977,-7.5968018
8.870518,-4.31076,-10.545261
8.407239,-4.128801,-9.388862
9.101558,-5.828684,-3.6607344
9.921572,-7.0832458,-1.7118542
7.2268977,-3.4476504,-0.31124622
6.941988,-1.8734628,4.212598
6.7612257,0.89064306,5.1882353
10.824186,-0.81881696,-0.38187516
7.1885905,-2.9376855,1.0785879
6.8749504,-1.7465701,-0.5291186
5.081693,-3.976769,-3.3482912
6.5505357,-4.995502,-11.107899
10.478224,-8.329428,-20.343533
9.114726,-10.204087,-15.933413
11.529279,-5.590461,-10.09994
6.8198833,-4.629189,-11.066
4.4113164,-2.5246856,-2.9771898
3.0765493,0.33638534,8.710106
4.88896,2.2349873,12.443863
9.56723,2.0326772,3.8833952
7.7919292,-2.566584,2.1894975
4.7381253,0.439336,-0.3196259
7.0090256,-5.819107,-9.204509
12.005724,-12.771869,-16.734272
13.366828,-10.84334,-25.001451
10.539276,-3.9743748,-18.958487
8.236053,-8.674192,-9.056067
4.892551,-1.7381904,-4.6004586
1.9381063,1.8866309,8.480263
4.110844,-0.093373865,18.140865
7.632715,-2.1739352,4.4819455
6.4404025,-4.238934,0.017956512
5.035006,-4.0043025,-1.6017209
7.72968,-8.870518,-13.35366
10.283096,-10.030508,-18.723854
10.727221,-9.127894,-22.495918
5.729325,-3.5661635,-11.997345
6.853402,-4.712986,-0.78290397
6.1195793,-5.9807158,3.6140475
4.984728,-2.3702598,3.9815574
4.209007,-1.6496049,6.0489507
9.276335,-4.711789,0.28491
15.51323,-5.932832,0.9696517
12.120646,-6.525397,-1.9045875
7.7703815,-6.5984197,-9.100361
7.1191587,-3.66672,-10.110714
8.438364,-2.1260512,-11.822568
8.183381,-3.7481227,-8.271967
8.529344,-6.2368956,-7.4495587
9.149442,-5.7808,-5.5246205
7.702147,-5.483919,-4.8398786
9.287108,-4.903325,-2.9819782
6.6067996,-3.6032736,-3.5410242
4.2700586,-4.7441106,-3.4261026
3.8905778,-4.911705,-2.3678656
3.6260185,-2.1906946,-3.7948096
6.801927,-2.4301147,0.08140286
7.7129207,-4.4723687,3.122039
8.674192,-7.381324,4.4963107
9.9550905,-9.485827,2.705448
8.90643,-8.3821,-1.7872716
9.91439,-6.4631476,-1.0642227
9.411607,-3.5170822,-1.7417817
7.8793178,-3.2142158,-2.7377696
8.531737,-5.781997,-3.643975
10.336966,-5.7975593,-3.807978
10.759542,-4.367024,-2.2409728
9.369708,-4.721366,-1.0199299
8.321048,-4.406528,-1.9620483
7.477092,-2.861071,-2.8419175
9.416395,-4.52145,-1.7381904
7.8876977,-4.2042184,-3.2022448
5.1140146,-2.5127146,-5.7041855
4.489128,-1.1851299,-5.9029045
7.301118,-1.2976574,-5.0745106
9.050082,-1.0690111,-5.74369
11.35929,-1.6651673,-4.211401
8.043321,-1.8423382,-0.9552865
6.683414,-3.192668,0.31364042
6.455965,-4.6686935,-1.2006922
4.1144357,-3.8367083,-3.655946
6.7600284,-4.689044,-5.673061
8.711303,-7.8984714,-7.621941
7.026982,-9.497798,-5.249287
6.8318543,-11.0061455,-4.71538
6.9838862,-11.068395,-7.2472486
5.542577,-9.598354,-8.281544
6.7839704,-7.72968,-8.173804
6.716933,-7.976283,-9.009381
5.831078,-7.0605006,-7.5944076
5.6646814,-4.402937,-4.8841715
6.2752028,-2.328361,-5.985504
8.130709,0.94211835,-1.4748282
6.918046,2.7928362,0.8726865
7.3525934,1.5502456,-1.3371617
8.854955,-0.7541735,-3.052607
7.690176,-2.493561,-4.4101195
4.8506527,0.37229836,-5.1810527
7.5225816,-1.1133038,-4.5046906
6.4631476,-5.149928,-5.2768207
8.63828,-8.0924015,-7.740454
6.35062,-7.3310456,-10.486604
4.7189717,-7.5584946,-11.907562
6.4260373,-8.937555,-10.882844
6.3661823,-6.953959,-7.1730285
6.077681,-6.7887588,-5.6203885
3.515885,-5.161899,-2.8060043
-1.8435353,-2.0685902,0.6512229
4.823119,-2.3666685,-3.8893807
9.5253315,-1.9548657,-4.655525
6.429629,-2.9592333,-1.8770541
4.1742907,-4.859032,-1.4329298
7.5405383,-5.8945246,-3.8031895
9.601946,-6.71813,-6.4523735
9.749189,-8.147469,-7.6746135
9.193734,-7.5812397,-8.093599
9.038112,-6.6067996,-6.5481415
7.644686,-5.7161565,-5.171476
6.7205243,-5.327099,-5.0900726
7.514202,-5.357026,-5.2157683
7.9188223,-5.035006,-4.5992613
7.410054,-4.856638,-3.776853
6.8043213,-5.00867,-3.6643257
6.5337763,-5.2061915,-3.9085343
6.8402343,-4.8243165,-2.9149406
7.2951326,-4.5441947,-0.2645593
6.7444663,-4.6710877,0.94570965
7.8984714,-5.333084,1.0654198
8.355764,-5.2768207,0.50038815
7.833828,-5.2516813,-0.30406362
7.77517,-5.2169657,0.010773907
7.759608,-5.1882353,0.82719666
7.929596,-5.3235073,1.721431
7.9822683,-5.407305,2.1296425
8.051701,-5.329493,2.2541409
7.7572136,-5.093664,1.875857
7.5189905,-5.116409,1.3455414
7.825448,-5.3199162,1.364695
7.7799582,-5.171476,1.7106571
8.012196,-5.425261,1.8471266
8.081628,-5.708974,1.8195933
8.276755,-5.553351,1.5813702
8.25401,-5.2875943,1.484405
7.9236107,-5.149928,1.7956513
7.4495587,-5.019444,1.5442601
7.156269,-5.0397944,1.5215151
6.7947445,-5.1702785,1.7717092
6.4008985,-5.403713,1.9919758
6.4020953,-5.8825536,2.1763294
7.201759,-6.6774287,2.087744
7.8039002,-7.442376,1.5861586
7.2304893,-7.607576,1.3024458
6.742072,-7.6027875,1.8004397
6.6522894,-7.8302364,3.063381
6.423643,-8.055291,3.3734303
6.599617,-7.8086886,3.1483753
6.6606693,-7.4268136,2.717419
6.9132576,-7.0545154,2.5318682
6.573281,-6.3985043,1.8830396
6.8905125,-6.187814,1.5741876
7.0209966,-6.7480574,1.4903905
8.231265,-7.4375877,-0.031124622
8.72088,-7.337031,-0.20829555
8.008605,-3.2549171,4.0414124
6.600814,-3.0801406,5.020641
3.1830912,-8.024167,1.1599907
9.49301,-9.913192,1.3215994
9.300277,-5.66947,0.8607155
8.35337,-4.0294414,1.2880806
5.7903767,-8.195353,2.6539726
6.8557963,-7.753622,3.2573113
6.706159,-5.5030727,3.2213984
6.2967505,-6.6774287,1.6232687
8.716091,-8.130709,1.353921
8.656237,-6.825869,-0.24779987
8.985439,-6.8773446,-0.05865794
7.7308774,-5.207389,3.9552212
4.187459,-4.405331,8.47308
-1.9213469,-6.752846,3.2860417
8.14268,-8.461109,-0.09816227
11.547235,-6.1650696,-0.89303726
9.315839,-6.399701,1.6891093
5.140351,-7.7811556,6.839037
3.881001,-6.229713,7.2819643
4.817134,-4.63278,6.206968
6.945579,-5.8454432,3.964798
7.8290396,-7.28795,1.7058687
9.277532,-6.078878,-1.7310078
12.679692,-6.31351,5.392939
3.903746,-6.554127,4.4807487
1.5490485,-6.8342485,1.7022774
7.3430166,-7.78355,3.8271315
7.7572136,-6.849811,3.6595373
9.872491,-6.7253127,4.3155484
7.005434,-5.518635,3.8127663
5.233725,-3.7804444,2.7736826
7.0832458,-3.3985693,3.3877954
8.505402,-4.3155484,4.5406036
8.428787,-4.309563,4.098873
8.89805,-5.461174,3.4931402
9.41041,-5.1571107,1.9812019
8.750807,-5.085284,4.76087
9.188946,-7.029376,4.642357
6.1243677,-9.058462,16.857574
3.003526,-4.023456,-2.1057005
10.342952,-3.3758245,-4.140772
7.0844426,-7.5704656,4.201824
8.64666,-10.721235,9.26556
5.2852,-6.9958572,7.8972745
5.3594203,-5.9663506,5.4085016
7.067683,-5.446809,0.08379706
9.411607,-4.06296,-0.6380547
8.476671,-3.7720647,0.35075054
5.507861,-4.450821,3.5434184
4.662708,-4.590882,5.386954
6.242881,-4.55856,4.882974
6.9024835,-3.21661,3.9013517
9.293094,-3.0083144,-0.37588966
9.516952,-2.7329812,-3.277662
12.21402,-4.1240125,-0.23702596
8.256405,-5.5126495,13.391967
2.9987376,-5.619191,-6.9228344
7.1131735,-2.8802247,-9.569624
10.131064,-6.5948286,-1.8483237
9.864111,-9.045294,2.0614076
9.25359,-7.249643,3.6774938
8.042124,-5.112818,1.1121067
9.036914,-5.058948,-2.337938
10.408792,-5.5820813,-3.2249897
10.303447,-5.543774,-2.457648
9.030929,-4.3897686,-1.9129672
7.4615297,-3.1747115,-1.9835961
6.9958572,-2.469619,-2.610877
6.539762,-1.5490485,-3.6942532
6.2763996,-0.48602295,-3.9851487
5.133168,-0.005985504,-3.6834793
4.0414124,0.18794483,-3.8127663
2.9352913,1.9033904,-5.9148755
2.2661119,4.0737343,-7.1490865
1.1599907,4.7776294,-7.356185
2.3870192,3.882198,-7.7967176
4.1371803,2.9712043,-8.435969
5.044583,2.552219,-9.064447
5.269638,1.7070658,-7.6135616
5.4922986,-0.3854665,-6.631939
8.009802,-3.6942532,-4.4280763
11.392809,-5.273229,-5.407305
11.895591,-5.9244523,-6.4763155
10.0508585,-8.359355,-4.984728
10.4171715,-11.147403,-3.596091
12.8772135,-13.092692,-5.0122614
13.941437,-15.945383,-4.8973393
17.550695,-22.215797,-3.502717
18.789696,-18.0858,-3.630807
5.1379566,-9.434352,-2.846706
-3.4392707,-5.2002063,-7.120356
-3.6152446,-3.8355112,-6.8653736
6.967127,-7.285556,-3.5733461
8.160637,-6.129156,-2.6300306
2.9029696,-6.825869,-11.220427
8.331821,-7.892486,-15.472528
8.717288,-5.6084175,-13.218388
5.5018754,-5.243302,-11.489774
-0.63206923,-3.6008794,-8.732851
0.78170687,-4.9524064,-6.8450227
3.4751837,-5.0278234,-9.622296
2.183512,-4.569334,-8.033744
0.5518635,-4.661511,-5.3127337
0.93134445,-4.911705,-1.5370775
4.1252093,-5.5844755,-3.6332011
5.967548,-5.398925,-9.084799
7.6147585,-5.7879825,-8.333019
6.2740054,-5.2277393,-4.7261543
-0.18674773,-6.4284315,-5.8107276
2.291251,-7.7667904,-6.041768
6.872556,-6.4751186,-7.654263
5.9843073,-4.8937483,-6.1926026
3.277662,-5.2636523,-6.1064115
5.258864,-5.674258,-6.423643
7.7332716,-4.7405195,-9.491813
6.1746464,-4.3777976,-7.4148426
1.4772224,-4.4208937,-0.4441244
3.2106245,-4.900931,2.1499932
6.5002575,-4.605247,-3.0478187
7.1634517,-5.391742,-6.3111157
4.8243165,-4.128801,-5.3761797
4.5058875,-4.200627,-4.52145
5.7664347,-5.589264,-5.2157683
4.8482585,-4.92607,-5.693412
4.5537715,-4.5154643,-6.1746464
5.770026,-4.7058034,-5.043386
4.3538556,-5.243302,-5.9867015
6.242881,-8.783129,-2.0626047
10.061633,-10.9103775,-4.256891
6.0716953,-5.997475,-5.9160724
2.60968,-3.4680011,-6.167464
3.952827,-5.619191,-8.318654
10.006566,-5.8933277,-6.420052
9.057265,-2.992752,-7.1371155
7.821857,-4.0521865,-9.038112
6.5445504,-6.009446,-8.991425
5.5737014,-6.839037,-7.4723034
4.7620673,-6.3446345,-4.68665
4.3658266,-6.4416,-3.157952
6.30513,-7.5201874,-2.9317
6.3422403,-7.299921,-3.6870706
6.8522053,-6.1638722,-1.567005
5.139154,-5.171476,-0.5530606
5.183447,-5.8933277,-1.5622166
6.8785415,-6.26802,-1.8686744
8.445546,-5.913678,-1.6077064
9.277532,-5.243302,-1.7250223
9.118318,-5.3103395,-1.9895816
9.266758,-5.0362034,-1.4496891
8.802282,-4.783615,-0.33877954
8.124723,-5.616797,0.10055647
8.183381,-6.9288197,0.91099375
7.9008656,-7.3873096,1.0546459
7.4244194,-7.752425,3.7110126
6.459556,-7.2747817,3.8163576
5.1942205,-6.9623384,3.5817258
5.222951,-7.571663,2.360683
6.6427126,-9.124303,1.3970166
9.445126,-10.259154,-1.3204023
11.281479,-10.109517,-2.2337902
10.1226845,-9.563639,-1.1587936
10.267534,-9.818622,0.0035913025
9.4535055,-9.672575,0.39624038
9.870096,-9.129091,-0.4417302
11.089942,-8.6574335,-1.0259154
10.972627,-8.24204,-1.1899183
10.420763,-7.679402,-0.90500826
9.25359,-6.745663,-0.5746084
8.723274,-5.9962783,-0.37708676
9.634268,-5.4779334,-0.51235914
10.02572,-4.8985367,-0.5638345
9.722853,-4.486734,-0.6488287
9.004593,-4.07134,-0.6811504
8.950723,-3.3183637,-0.32202014
8.796297,-2.8311436,-0.44651863
8.163031,-2.110489,-0.22625206
8.189367,-1.7489643,-0.050278235
7.7847466,-1.411382,-0.21547815
7.1945763,-0.8774749,-0.09935937
7.347805,-0.6584055,-0.02633622
7.2388687,-0.80924016,0.04070143
7.586028,-0.9900024,0.40222588
7.7787614,-1.2569559,0.49200845
7.765593,-1.4389153,0.56982
7.73806,-1.7070658,0.7302315
7.60997,-1.958457,0.91937345
7.9691005,-2.433706,1.0007763
8.200141,-2.9149406,0.9540894
9.313444,-3.6355953,1.508347
9.89763,-4.522647,2.054225
9.61272,-4.9559975,2.6420016
9.205706,-4.8698063,2.6264393
8.206126,-4.3598413,2.3690627
7.7201033,-4.0426097,2.44448
7.359776,-3.6978445,2.4372973
7.314286,-3.38181,2.2744915
7.8757267,-3.6511576,2.337938
7.3657618,-3.882198,2.5905263
6.6415157,-3.7098155,2.8981812
6.4392056,-3.5924997,2.7868507
6.494272,-3.6750996,2.755726
7.6363063,-4.390966,2.9352913
7.6889787,-4.820725,3.0430303
6.8318543,-4.747702,3.357868
6.066907,-4.644751,3.359065
5.943606,-4.8039656,3.5889084
6.2823853,-5.315128,4.128801
6.815095,-5.99149,4.4304705
7.2580223,-6.587646,4.620809
6.697779,-6.8366427,4.7656584
6.23091,-6.992266,4.9775453
6.030994,-7.21373,5.00867
5.9783216,-7.49026,5.177461
5.5844755,-7.595605,5.329493
5.6802435,-7.8302364,5.3606176
5.365406,-7.8206596,5.29358
4.7321396,-7.511808,5.5138464
4.441244,-7.5824366,5.650316
4.703409,-7.789535,5.5030727
4.995502,-7.7428484,5.0266266
5.3139305,-7.8302364,4.8279076
5.3737855,-7.9068513,4.697424
5.4683566,-7.9427643,4.853047
5.395334,-7.7608047,5.1798553
5.2624555,-7.574057,5.0481744
5.234922,-7.2328835,4.8135424
5.2444987,-6.870162,4.584896
5.2277393,-6.6606693,4.201824
5.5102553,-6.7708025,3.9624038
6.1519012,-6.715736,4.471172
6.1985884,-6.7205243,4.739322
6.349423,-6.757634,5.0757074
6.599617,-6.9527617,4.939238
7.1610575,-7.0724716,4.6279917
7.9511437,-6.884527,4.349067
8.574833,-6.7600284,3.4620156
8.832211,-6.56131,2.9987376
7.9822683,-6.3661823,3.4799721
6.895301,-6.6391215,3.7612908
6.279991,-6.6044054,3.9971197
5.9723363,-6.491878,4.056975
6.4870896,-6.6726403,3.9875429
6.269217,-6.563704,4.2556934
5.923255,-6.7588315,4.578911
5.4647655,-6.969521,4.7740383
5.00867,-7.216124,4.83509
5.183447,-7.405266,4.2102036
6.143522,-7.3549876,3.1256304
6.4392056,-6.9719152,3.0466216
6.5864487,-6.9120603,4.0186677
6.3566055,-7.121553,5.449203
6.3446345,-7.3442135,5.971139
5.639542,-6.963536,5.6586957
5.518635,-7.0341644,5.481525
5.4922986,-6.791153,5.3821654
5.511452,-6.655881,5.1116204
5.0254292,-6.752846,5.070919
4.8698063,-6.895301,5.357026
4.618415,-6.8079123,5.221754
4.413711,-6.7971387,5.2863975
4.608838,-6.7708025,5.267244
4.8398786,-6.599617,5.1140146
4.8219223,-6.4763155,5.2624555
4.6112323,-6.4128695,5.3725886
4.413711,-6.453571,5.4288526
4.220978,-6.50744,5.493496
4.497508,-6.7085533,5.535394
4.7165775,-6.658275,5.5126495
4.6806645,-6.7851677,5.7544637
4.5154643,-6.7468605,5.7975593
4.5406036,-6.76362,5.7400985
4.6160207,-6.70975,5.731719
4.6232033,-6.731298,5.7664347
4.5142674,-6.8043213,5.935226
4.5118732,-6.8773446,5.9867015
4.570531,-6.731298,5.793968
4.572925,-6.694188,5.9124813
4.4556093,-6.6654577,5.8334723
4.3777976,-6.600814,5.819107
4.4244847,-6.5828576,5.7520695
4.542998,-6.517017,5.603629
4.8159366,-6.5864487,5.21936
4.710592,-6.525397,5.305551
4.4663835,-6.622362,5.4527946
4.1659107,-6.5708866,5.433641
4.2161894,-6.6642604,5.3354783
4.4304705,-6.7133417,4.939238
4.3263226,-6.8581905,4.9428296
4.7022123,-7.406463,5.1475334
5.4791307,-7.382521,4.4580035
5.755661,-7.2424603,4.334702
5.6060233,-7.180211,4.662708
5.3103395,-7.3059063,5.2768207
5.070919,-7.666234,5.931635
5.112818,-7.8529816,6.542156
5.0397944,-7.967903,6.417658
4.8722005,-7.8865004,6.1902084
4.6363716,-7.880515,5.765238
4.201824,-7.644686,5.2205567
3.7241807,-7.4962454,5.0002904
3.549404,-7.417237,4.818331
3.6415808,-7.15986,4.519056
3.822343,-7.109582,4.286818
3.8881836,-7.1634517,4.1455603
4.185065,-7.3430166,3.632004
4.5753193,-7.577648,3.3387144
5.877765,-8.033744,2.15957
6.3446345,-7.821857,1.9309237
6.467936,-8.016984,2.1511903
6.3338604,-8.276755,2.5210943
5.8334723,-8.050503,2.7688942
5.6108117,-8.091205,2.9221232
5.729325,-8.01459,2.858677
5.947197,-7.884106,2.633622
6.06571,-7.8086886,2.566584
6.0321913,-7.8158712,2.5007436
5.8801594,-7.7009497,2.4768016
5.7640405,-7.615956,2.741361
5.8238955,-7.5309615,4.1024647
5.2409077,-7.551312,4.298789
5.199009,-7.381324,3.9480386
5.3354783,-7.2221093,3.6523547
5.663484,-7.3885064,3.4464533
5.7987566,-7.5549035,3.2130187
6.030994,-7.5189905,2.9173348
6.0130377,-7.3310456,2.6168625
6.114791,-7.3537903,2.6013002
6.136339,-7.562086,2.5198972
6.125565,-7.7129207,2.5354595
6.054936,-7.809886,2.9221232
5.7903767,-7.7201033,3.4033577
5.819107,-7.5046253,3.4129345
6.4104753,-7.302315,3.2142158
6.301539,-6.991069,3.1364043
6.7624226,-6.945579,3.071761
7.2125325,-6.7719994,3.1016884
7.16824,-6.6163764,3.0142999
7.1885905,-6.6882024,2.9029696
6.955156,-6.597223,3.0142999
6.6905966,-6.667852,3.0059202
6.679823,-6.7492547,2.8419175
6.59004,-6.7205243,2.7389667
6.4978633,-6.8809357,2.6240451
6.4463882,-7.016208,2.5115175
6.4643445,-7.097611,2.5797524
6.3182983,-7.1730285,2.6755204
5.9052987,-7.231686,2.9831753
5.363012,-7.144298,3.2573113
5.1080294,-6.967127,3.4117374
5.2145715,-6.8486137,3.4835634
5.4432178,-6.8773446,3.2932243
5.723339,-6.9491706,3.1040826
6.030994,-7.029376,2.7269957
6.658275,-7.2328835,2.36188
6.867768,-7.290344,2.1057005
6.8665705,-7.3202715,2.0805612
7.028179,-7.374141,1.9285295
6.9623384,-7.347805,1.7238252
6.95755,-7.3310456,1.5693992
6.727707,-7.3178773,1.5478514
6.4978633,-7.2460513,1.5406688
6.477513,-7.2209125,1.4401124
6.2632318,-7.153875,1.483208
6.1985884,-7.147889,1.6759412
6.23091,-7.1514807,1.6627731
6.3482256,-7.1766195,1.6041151
6.6486983,-7.240066,1.5765818
6.8749504,-7.4112515,1.9835961
6.7767878,-7.381324,2.2541409
6.7564373,-7.277176,2.2744915
6.9288197,-7.267599,2.15957
7.207744,-7.3609734,2.0398598
7.165846,-7.3190746,1.9081788
6.9503675,-6.968324,1.7417817
6.9132576,-6.6175733,1.5215151
7.055712,-6.277597,1.2162545
7.229292,-6.0082493,1.067814
7.3729444,-6.007052,1.0474633
7.428011,-6.1195793,0.973243
7.3765354,-6.2368956,0.9552865
7.2304893,-6.4583592,1.0031705
6.999449,-6.5146227,1.0905589
6.8438253,-6.588843,1.3204023
6.805518,-6.805518,1.5885528
6.799533,-6.7827735,1.7860745
6.691794,-6.775591,2.12246
6.5349736,-6.827066,2.1978772
6.4128695,-6.7708025,2.0805612
6.3589997,-6.6642604,1.9883845
6.525397,-6.658275,1.8974048
6.707356,-6.6391215,1.875857
6.7480574,-6.575675,1.6879122
6.8689647,-6.543353,1.4568717
7.0126166,-6.6486983,1.2617443
7.1526775,-6.7600284,1.13964
7.2448545,-6.9371996,1.1061212
7.28795,-7.1826053,1.1803415
7.2268977,-7.3178773,1.2078748
7.1263413,-7.3549876,1.2354081
7.055712,-7.381324,1.1372458
6.975507,-7.455544,1.1552023
6.896498,-7.511808,1.1647792
6.9707184,-7.620744,1.1719618
6.9731126,-7.797915,1.1839328
6.8210807,-7.9128366,1.1767502
6.575675,-7.81228,1.1971009
6.3242836,-7.740454,1.1647792
6.1519012,-7.7572136,1.1563994
6.0609217,-7.6267295,1.0726024
6.0022635,-7.5225816,1.0199299
6.0202203,-7.501034,0.8762778
6.066907,-7.479486,0.830788
6.041768,-7.4723034,0.79128367
6.0022635,-7.4256167,0.7733272
5.995081,-7.3430166,0.7457938
5.9998693,-7.297527,0.7793127
6.087258,-7.2843585,0.7529764
6.1542954,-7.2604165,0.7517793
6.184223,-7.1969705,0.7170634
6.1902084,-7.1514807,0.7314286
6.2380924,-7.1742253,0.7457938
6.2763996,-7.177817,0.8319851
6.6056023,-7.1526775,0.8391677
6.7947445,-6.9886746,0.91458505
6.777985,-6.7803793,1.0199299
6.825869,-6.791153,1.0618285
6.885724,-6.793547,1.0127473
7.005434,-6.803124,0.81163436
6.9371996,-7.0664864,0.7098808
6.908469,-7.3298483,0.5470751
7.089231,-7.680599,0.45250413
7.2340803,-8.152257,0.4225766
7.489063,-8.525752,0.32202014
7.359776,-8.487445,0.49320555
6.88333,-8.580819,0.58897364
6.4392056,-8.513782,0.700304
6.021417,-8.0924015,0.5781997
5.841852,-7.6051817,0.46686932
5.7005944,-7.2927384,0.4141969
5.8226986,-7.0952168,0.37349546
6.045359,-7.086837,0.25139117
6.203377,-7.1023993,0.10175357
6.3302693,-7.0581064,-0.020350715
6.4008985,-6.8761473,0.005985504
6.3865333,-6.733692,0.08619126
6.417658,-6.5098343,0.1448492
6.637924,-6.2464724,0.15682021
6.9491706,-6.5002575,0.24540567
7.156269,-7.0545154,0.20111294
7.345411,-7.441179,0.20231004
7.2352777,-7.667431,0.30526072
6.9611416,-7.6506715,0.36152446
6.7133417,-7.297527,0.4369418
6.5720835,-7.065289,0.50996494
6.4032927,-6.9288197,0.40342298
6.3865333,-6.915652,0.2837129
6.5122285,-6.9647326,0.25977087
6.6175733,-6.9348054,0.2765303
6.587646,-6.766014,0.21308395
6.6163764,-6.599617,0.21787235
6.8282633,-6.634333,0.24660277
7.132327,-6.9767036,0.39624038
7.2723875,-7.2628107,0.49559975
7.3633676,-7.3789296,0.4429273
7.2711906,-7.299921,0.4297592
7.1083846,-7.111976,0.39983168
6.882133,-6.7133417,0.47165772
6.8641763,-6.4392056,0.50038815
7.0090256,-6.5086374,0.50637364
7.153875,-6.6510925,0.4237737
7.2927384,-6.9132576,0.33039984
7.405266,-7.1383123,0.35793316
7.41604,-7.229292,0.36152446
7.526173,-7.2125325,0.39624038
7.620744,-7.1371155,0.40462008
7.4627266,-6.8785415,0.4441244
7.37055,-6.585252,0.2741361
7.291541,-6.205771,0.1364695
7.052121,-5.843049,0.04309563
6.9252286,-5.8634,0.11611878
7.0006456,-5.967548,0.15562311
7.0341644,-5.961562,0.16519992
7.264008,-6.1004257,0.1388637
7.644686,-6.4140663,0.051475335
8.032547,-6.7947445,0.19512744
8.026561,-7.015011,0.33039984
7.6470804,-6.9503675,0.7338228
7.1969705,-6.588843,0.81283146
7.669825,-6.1064115,1.151611
7.953538,-5.7975593,1.2856863
7.301118,-5.54138,0.7314286
7.0688806,-5.294777,0.61890113
7.723695,-4.614824,1.2389994
8.277952,-3.6966474,1.3694834
8.034941,-3.5781345,0.80325466
7.715315,-3.6966474,-0.16639702
7.9583263,-3.716998,-0.1364695
7.037756,-3.6511576,0.050278235
6.302736,-4.0653543,-0.79008657
5.5521536,-4.357447,-0.8702923
5.5737014,-5.195418,-0.8343793
6.217742,-6.221333,-1.3587095
6.9599442,-6.956353,-2.597709
7.1790137,-7.428011,-3.5434184
7.314286,-8.005013,-4.283227
7.77517,-8.51019,-4.1132383
7.762002,-8.4347725,-3.3435028
7.6949644,-8.558074,-3.122039
7.3777328,-8.583213,-3.3494883
7.5584946,-8.645462,-4.0940847
7.8050976,-8.986636,-4.629189
7.337031,-8.771158,-3.8019924
6.339846,-8.760384,-2.6120741
6.645107,-8.610746,-2.4492683
6.7827735,-7.5345526,-2.8502972
7.2268977,-7.1730285,-3.4979286
7.165846,-6.897695,-2.9508536
6.7265096,-6.429629,-2.373851
6.975507,-6.1100025,-2.4157495
7.398083,-6.0321913,-2.9245174
7.4603324,-5.1463366,-2.4229321
8.067263,-5.142745,-2.172738
8.668207,-4.830302,-3.9851487
10.338163,-3.4943373,-5.616797
10.21965,-2.553416,-5.2301335
8.728063,-2.1859062,-4.0892963
8.209718,-1.1204864,-3.05141
8.713697,-0.5267244,-3.0202854
8.686164,-0.30645782,-2.6001031
8.717288,-0.260968,-0.9804256
7.86615,-0.2669535,1.3299791
5.5521536,-1.1791444,4.0761285
4.973954,-4.0402155,4.699818
4.1299977,-7.2867527,4.0677485
6.906075,-8.8777,-2.8981812
10.085575,-9.548077,-10.096349
11.504139,-10.26514,-15.065515
10.311827,-8.220491,-12.980165
7.433996,-8.780735,-5.861006
5.2289367,-6.68102,-1.7250223
3.2728736,0.1436521,4.72376
6.8282633,2.078167,11.207258
8.486248,0.21906945,6.2728086
5.2648497,-2.753332,2.822764
5.2241483,-4.296395,2.2697031
7.905654,-9.240421,-10.1143055
11.52449,-12.946646,-18.907011
12.61026,-13.356054,-22.415714
9.181764,-8.939949,-16.176424
6.2608376,-8.121132,-9.696517
3.6499605,-4.4077253,-4.9404354
2.8311436,0.5351041,9.021352
4.747702,1.0067618,14.280216
7.9870567,-1.0845734,8.3821
4.4723687,-1.9536686,2.1452048
4.841076,-4.675876,-0.3172317
7.428011,-9.982624,-11.656171
12.306197,-13.760674,-17.427395
11.767501,-12.430696,-21.999123
8.072051,-7.6841903,-14.548367
6.975507,-8.287529,-6.3362546
4.4723687,-2.6372132,-3.8881836
4.134786,1.7465701,10.199299
3.8271315,2.4768016,12.338518
5.0146556,-0.15682021,8.990228
3.4632127,-2.0123265,2.1152773
6.0944405,-5.934029,-1.4544775
8.371326,-11.358093,-13.453019
12.272678,-15.829265,-21.978771
9.685743,-12.190078,-22.874203
5.920861,-7.4926543,-14.888343
5.309142,-7.356185,-4.5801077
3.6619315,-2.3558946,-0.91338795
5.6215854,1.9009962,9.85214
6.730101,1.6807296,10.564415
8.1402855,-1.5382746,6.5577183
5.699397,-2.4265234,0.5374983
6.1303535,-5.6203885,-3.6643257
8.36175,-11.700463,-14.077906
10.271125,-14.61301,-20.748152
7.5070195,-11.160571,-20.77329
5.898116,-8.441956,-13.30817
4.06296,-7.2963295,-5.6156
4.1419687,-2.1883004,-1.4425066
5.365406,1.6328455,10.599131
5.29358,1.7441759,9.54209
7.451953,-0.91338795,5.8622026
4.985925,-3.3255463,0.31483752
5.374983,-5.768829,-5.543774
8.838196,-13.0759325,-12.945449
12.053609,-16.426619,-16.166847
7.6722193,-11.614272,-19.098547
6.0082493,-6.706159,-13.432669
5.542577,-6.194997,-7.6003933
4.132392,-2.8993783,-3.2728736
5.7400985,0.5590461,6.235698
5.222951,1.3263878,8.248025
7.1945763,1.2318168,5.865794
5.2804117,-1.1587936,2.956839
3.6092591,-3.0071173,-1.8387469
6.5241995,-9.583989,-5.840655
10.929531,-15.486894,-13.773843
11.131841,-13.612234,-18.435352
6.706159,-8.574833,-18.042704
6.030994,-6.588843,-11.814188
4.9224787,-5.9280434,-5.3019595
4.739322,-2.9999347,-0.91697925
5.9412117,-0.46686932,7.2125325
6.7504516,0.4369418,9.187749
7.477092,-0.81043726,4.844667
6.30513,-2.8275523,1.614889
4.5022964,-3.4129345,-3.039439
6.9252286,-10.029311,-9.85214
10.783484,-14.957775,-17.939753
8.967483,-12.160151,-18.36233
5.2085857,-7.4830775,-13.784616
5.6802435,-7.0593038,-9.543288
5.3354783,-3.8774097,-5.058948
6.7229185,0.19632454,4.3861775
5.445612,1.6591818,9.482236
6.355408,1.2629414,6.694188
6.0645127,-1.3156139,2.6372132
3.977966,-2.813187,-2.8335378
5.1798553,-7.7560163,-7.479486
10.43872,-14.60463,-14.372393
11.996147,-13.911509,-17.931374
6.8881183,-9.011775,-17.067066
5.955577,-5.8622026,-12.059594
5.967548,-5.0601454,-6.6870055
5.556942,-1.4748282,0.3172317
4.9907136,1.2976574,9.736021
6.1902084,1.6591818,9.657013
7.073669,-0.29807812,4.392163
6.179435,-3.5218706,1.6591818
3.6846764,-3.4392707,-2.0171149
7.4004774,-10.134656,-6.943185
11.565191,-14.147338,-14.684836
11.131841,-11.793838,-18.689138
6.4416,-7.2125325,-15.387534
5.697003,-6.967127,-8.11395
4.010288,-6.0369797,-4.4316673
4.757279,-3.2225955,-1.198298
6.0130377,-1.1180922,5.913678
5.092467,-0.01316811,5.306748
6.38773,0.6955156,2.7509377
7.121553,-1.910573,-0.21906945
6.853402,-4.4220905,-2.2637177
5.717354,-5.9867015,-5.317522
6.8569937,-8.64666,-8.346188
8.121132,-11.166556,-10.654198
11.979388,-11.954249,-11.280281
8.147469,-6.341043,-8.582016
5.7281275,-4.9895163,-5.6239796
5.887342,-4.868609,-4.8614264
5.7257333,-2.054225,-5.139154
7.253234,-1.6101006,-4.983531
7.5082164,-2.8323407,-4.2461166
5.3402667,-3.217807,-3.3722332
5.2181625,-3.5098996,-4.3873744
6.9000893,-3.7612908,-5.451597
8.0924015,-4.1096473,-5.2421045
7.9272017,-4.8279076,-4.894945
6.314707,-5.7784057,-3.441665
5.554548,-6.295553,-3.4093432
6.4751186,-7.501034,-4.1503487
7.704541,-8.145074,-4.1718965
7.265205,-7.9272017,-5.213374
6.077681,-8.656237,-6.791153
5.819107,-8.291121,-6.7265096
5.961562,-6.9252286,-6.5936313
6.25964,-6.235698,-5.9424086
6.4751186,-5.029021,-3.359065
8.529344,-3.4225113,-1.9333179
8.974665,-0.21787235,0.6943185
8.372523,1.1959038,2.847903
6.3470287,0.6691794,0.39624038
7.892486,-0.6967127,-0.7637503
7.207744,-1.7082629,-1.5693992
6.339846,-4.5238442,-3.2225955
7.9906483,-8.6299,-7.1873937
8.157045,-10.079589,-10.208876
7.807492,-11.933898,-11.269507
6.7959414,-10.490194,-12.154165
6.5708866,-7.177817,-11.444284
4.844667,-6.0357823,-9.075222
5.437232,-3.4129345,-6.3781533
6.6079965,-0.0023942017,-2.598906
6.955156,2.0386627,4.321534
6.576872,1.198298,4.8722005
7.4842744,-0.58418524,1.7812861
8.300697,-3.0681696,-0.8738836
5.614403,-3.052607,-2.801216
5.9962783,-7.929596,-6.397307
8.661025,-12.050017,-10.777499
9.150639,-11.4119625,-13.552379
8.368932,-11.468226,-10.880449
5.0493712,-7.189788,-8.8777
5.3223104,-5.21098,-8.166622
6.289568,-1.8387469,-5.1116204
6.3338604,1.3096284,0.5482722
7.1790137,1.5993267,4.510676
6.8462195,0.6979098,2.871845
7.575254,-1.3826514,1.2641385
5.6419363,-1.9033904,-2.3942018
4.4340615,-5.5521536,-5.2169657
7.6770077,-10.973824,-9.551667
10.971429,-12.980165,-12.613852
9.11712,-12.277467,-11.744757
5.201403,-7.074866,-11.215638
4.619612,-5.2636523,-7.359776
6.1447186,-3.4691982,-4.441244
5.74369,0.25258827,-0.22744916
6.6905966,1.614889,5.1080294
7.038953,0.45370123,3.9360676
8.51857,-1.9261353,1.3491327
6.531382,-1.8543092,-0.7422025
5.7245364,-5.3259015,-2.9640217
8.109161,-10.981006,-10.906786
10.139444,-14.225149,-11.496957
8.372523,-13.213599,-12.035652
5.1319714,-8.641871,-10.545261
5.433641,-7.1670427,-8.109161
3.9468415,-4.9667716,-3.776853
7.15986,-1.8028339,-0.33758244
8.525752,1.0582372,2.835932
8.073248,2.0494366,4.3634324
7.505822,0.90500826,1.2449849
7.1263413,-1.6077064,0.21308395
6.1650696,-3.5446155,-2.3894134
6.6079965,-7.479486,-6.4104753
10.600328,-12.765883,-10.146626
9.7719345,-14.257471,-14.29937
6.3805475,-10.765528,-12.63899
5.5461683,-7.121553,-9.096769
4.9763484,-4.903325,-3.7588966
5.9807158,-1.8219875,0.48482585
7.249643,0.5363012,3.3423057
6.2979474,1.055843,5.1786585
6.7348895,-1.1240777,2.243367
6.2632318,-2.553416,-0.62608373
6.1938,-3.502717,-2.5594015
8.224083,-7.061698,-6.9826894
9.779117,-10.998962,-7.789535
9.223662,-11.019313,-7.827842
6.525397,-10.572795,-11.8094
4.710592,-10.351331,-11.501745
5.410896,-8.074445,-8.160637
5.2157683,-7.687782,-7.395689
6.1399302,-7.4567413,-5.0757074
5.5006785,-5.0302176,-5.17387
6.4547677,-1.62686,-2.0099323
7.679402,1.4568717,7.872135
7.9846625,1.1587936,7.3466077
5.6790466,-0.93852705,4.179079
4.226963,-0.9804256,-2.1021092
6.8689647,-6.2105594,-8.27077
7.680599,-11.039664,-13.773843
10.323798,-13.96059,-13.925874
7.771579,-11.204864,-13.0041065
6.915652,-5.645528,-12.66413
6.683414,-4.811148,-7.502231
7.2843585,-3.3554738,-0.676362
7.6111674,0.50158525,6.161478
6.658275,1.0486604,13.12262
8.603564,-1.7405846,6.537368
6.278794,-1.6891093,-0.6931214
4.7417164,-5.109226,-3.881001
7.8266454,-12.617443,-15.682021
10.680533,-15.998055,-19.685127
10.120291,-12.832921,-18.456902
6.70975,-6.9467764,-11.380837
5.2085857,-6.3709707,-6.281188
4.143166,0.2813187,1.0618285
2.4863784,4.38498,14.5328045
2.5198972,2.6431987,11.693281
8.53892,-2.7222073,7.2304893
6.218939,-3.8738184,-1.1420342
3.3854012,-7.917625,-5.913678
11.62744,-19.189528,-15.759832
14.78659,-15.569493,-25.537752
7.81228,-7.3968863,-20.460848
6.839037,-5.9412117,-11.816583
5.74369,-2.4181437,-2.5270798
3.9755719,2.5270798,12.409147
4.370615,3.2082303,13.621811
4.8243165,-0.1604115,8.832211
3.1052797,-5.0637364,2.9592333
3.083732,-7.100005,-2.2936451
9.743204,-13.071144,-15.014039
16.451757,-15.049952,-23.793577
9.898827,-9.964667,-20.0682
3.9935284,-4.546589,-10.828975
5.896919,-6.6534867,-5.590461
5.2720323,-1.6136919,-1.0654198
5.3247046,-0.89662856,11.907562
3.8965633,-1.3156139,11.438298
8.312668,-5.559336,4.1036615
6.921637,-6.384139,-0.51954174
7.4148426,-2.0446482,-5.2289367
10.629059,-4.098873,-8.178593
9.874885,-8.7292595,-6.884527
9.115923,-9.7479925,-7.976283
6.6786256,-4.856638,-5.4551888
6.7612257,-3.8630445,-4.4244847
8.469488,-5.187038,-6.7971387
10.554838,-5.2852,-6.8318543
9.175778,-5.48751,-6.0884547
11.0695915,-6.173449,-6.7887588
11.301829,-5.321113,-4.280833
9.947908,-5.7784057,-1.9847932
10.480618,-7.141904,-5.011064
11.21444,-6.683414,-4.8841715
10.662578,-6.364985,-5.08289
8.798691,-6.615179,-4.6040497
7.9702973,-5.1104236,-3.003526
4.429273,-3.144784,-2.2014685
-1.0582372,-1.1947067,0.2908955
-2.956839,-1.8579005,3.0023289
0.03232172,-3.2872388,5.5162406
2.9783869,-5.1116204,6.3769565
5.133168,-5.4444146,5.60722
7.639898,-3.8295257,5.913678
8.280347,-2.4396915,7.777564
7.0461354,-2.9221232,6.8438253
6.1650696,-2.9867666,8.953117
6.8079123,-2.6886885,7.9475527
6.777985,-2.813187,2.8909986
10.031705,-4.4544125,0.91338795
12.512098,-4.3406878,-0.92655605
10.864887,-2.529474,-2.2170308
10.018537,-2.280477,-0.4405331
9.995792,-1.13964,2.100912
6.443994,1.0833763,6.5445504
7.2508397,-0.6667852,10.704475
7.973889,-0.8511387,10.126276
4.9045224,-1.8614918,5.497087
6.0956373,-4.0438066,2.160767
7.702147,-7.8613615,-8.585608
13.174095,-11.8896055,-21.146786
17.92898,-16.539145,-21.677103
12.25951,-8.991425,-18.09418
5.8586116,-6.054936,-13.412318
3.204639,-6.8186865,-2.0829554
3.693056,-0.93613285,3.50152
3.2956185,3.0358477,13.778631
4.6950297,1.8183962,12.6222315
5.7005944,-2.396596,7.881712
3.9971197,-4.19943,1.5298948
5.695806,-9.651027,-3.3985693
11.110293,-16.81807,-13.478158
15.544354,-14.433445,-25.452759
10.350134,-10.984597,-22.887371
7.0844426,-6.399701,-14.931438
5.7508726,-5.9268465,-7.8613615
4.808754,-1.6017209,-2.9520507
5.729325,0.41180268,9.519346
6.0405707,2.079364,14.010868
3.954024,1.3335704,11.956643
5.3366756,-3.930082,6.3578024
4.426879,-2.7353754,-0.010773907
4.5262384,-9.242816,-11.625047
11.532869,-17.068264,-23.716963
16.522387,-13.247118,-29.25116
8.744822,-7.8422074,-22.674288
4.8267107,-7.103596,-10.554838
3.752911,-5.207389,-4.2401314
7.763199,-0.20111294,2.5366566
4.4963107,1.970428,14.858416
3.4237084,2.7808652,15.72392
5.070919,-2.6982653,11.68969
5.9184666,-2.7736826,2.303222
4.3538556,-4.697424,-5.8813562
5.4180784,-11.116279,-20.39381
11.881226,-17.125725,-25.939978
14.408306,-14.800955,-21.98356
6.4260373,-6.7025676,-15.990873
4.253299,-7.929596,-7.025785
6.196194,-3.2752678,-4.734534
6.2752028,0.62967503,13.133393
4.0737343,2.219425,15.518019
3.6942532,0.4381389,11.5616
5.7424927,-3.3446999,3.8654387
5.2756233,-2.7246015,-1.3084313
5.6922145,-7.1790137,-11.6825075
7.9128366,-12.670115,-19.416975
11.21444,-13.169307,-23.919271
7.219715,-8.668207,-18.09777
7.61835,-7.747637,-8.820239
7.6482773,-7.8876977,-2.15957
5.839458,-2.7521348,-1.7848774
4.9416323,1.0630256,6.007052
4.796783,1.9381063,8.457518
7.189788,-0.9576807,3.016694
4.0054994,-3.3722332,-0.1604115
5.105635,-6.0597243,-4.891354
6.375759,-9.38168,-12.732365
9.368511,-10.439917,-17.42141
9.038112,-9.357738,-16.74026
6.2859764,-7.109582,-6.506243
5.249287,-4.6112323,-0.9720459
7.856573,-6.1076083,1.5155296
7.2089415,-3.7660792,2.5258827
6.5864487,-2.4289176,1.2234371
8.09719,-2.6276364,-1.352724
9.483433,-3.0250738,-5.2085857
11.016919,-3.5458126,-4.727351
9.844957,-5.7508726,-8.104373
12.476185,-4.4017396,-7.8086886
11.216835,-2.5187001,-8.109161
9.847352,-3.9073372,-8.803479
11.625047,-6.3566055,-8.14268
11.337742,-5.969942,-7.550115
10.721235,-4.7896004,-7.141904
3.4572272,-4.035427,-3.9671922
-4.915296,-5.4779334,0.272939
-3.8881836,-7.0569096,3.039439
1.5298948,-3.6248214,3.7349546
2.3415294,-1.5490485,3.2956185
6.2584434,-5.8107276,6.9132576
8.031349,-7.356185,5.0362034
5.6910176,-3.4572272,3.6415808
4.6902413,-2.0649989,3.1052797
6.721721,-1.9656396,5.8574142
6.208165,-2.6791117,5.6898203
7.1287355,-5.779603,4.7058034
8.130709,-7.005434,5.3474493
8.9758625,-5.639542,4.501099
9.221268,-4.739322,0.04189853
10.724827,-5.981913,1.8112136
11.051635,-4.8458643,3.0873232
9.52174,-5.973533,0.053869538
6.1746464,-3.989937,-0.5231331
5.4779334,-2.1655555,-2.4768016
8.625112,-2.0231004,-6.235698
10.462662,-1.0283096,-5.1475334
7.7488337,-1.4652514,-4.559757
7.395689,-2.6551697,-6.4248405
11.484985,-4.197036,-5.7724204
10.705673,-3.4404678,-4.674679
8.7532015,-3.7074213,-4.050989
8.1343,-5.470751,-5.1140146
8.283937,-4.7919946,-6.6187706
8.659827,-4.722563,-6.145916
8.742428,-4.537012,-6.05733
8.383297,-5.2181625,-5.1702785
6.8569937,-5.753267,-3.857059
7.2783732,-5.057751,-3.3985693
8.358158,-4.4208937,-3.3446999
8.627506,-4.5154643,-3.690662
7.8062944,-4.5561657,-3.8738184
7.264008,-4.285621,-4.0785227
8.158242,-4.325125,-3.8271315
7.5824366,-4.2413282,-3.6631286
7.4842744,-3.8175547,-2.100912
7.1885905,-3.5817258,-0.8331822
7.156269,-3.7349546,-0.878672
7.394492,-3.7110126,-1.7549498
8.038532,-3.5482068,-3.3686419
9.956287,-3.4249055,-4.2102036
9.714474,-3.903746,-2.622848
7.8302364,-4.3885717,-0.8295909
7.4986396,-4.6926355,0.1364695
7.997831,-5.0864816,0.22266077
8.104373,-5.094861,-0.7254431
8.175002,-5.3378725,-1.7130513
9.464279,-5.57849,-2.1823149
9.168595,-5.046977,-1.6759412
7.8469963,-4.6782703,1.3072342
8.215703,-5.317522,0.48123455
9.579201,-4.787206,-0.8726865
9.634268,-3.642778,-1.7262194
9.51336,-2.835932,-3.4452562
9.827001,-1.2773066,-3.3063924
8.376115,-0.62488663,-2.730587
7.8853035,-0.8714894,-1.5502456
7.8493905,-0.5602432,-0.700304
7.457938,-0.18794483,-0.44532153
7.3525934,-0.82480246,-0.8702923
8.956709,-1.6400281,-1.6962919
10.06283,-2.4732103,-1.021127
10.254366,-3.2070332,-0.5722142
8.731653,-3.6355953,-0.49440265
9.337387,-4.1742907,-1.7824832
9.90601,-4.259285,-1.7070658
9.264363,-5.795165,-1.1791444
9.64145,-6.671443,-1.0630256
9.583989,-5.985504,-0.88944596
8.585608,-5.463568,-1.9536686
9.11712,-6.0022635,-2.6491842
9.194932,-6.18542,-2.943671
8.841787,-6.223727,-3.6224272
8.9842415,-5.961562,-2.834735
9.338584,-6.066907,-2.3211784
8.933964,-5.9400144,-1.5849615
7.77517,-5.437232,-1.2785037
7.9691005,-5.1104236,-1.7968484
8.036138,-4.6579194,-2.0027497
7.9954367,-4.155137,-1.745373
8.625112,-3.8534677,-2.2397757
8.224083,-3.738546,-2.7700913
8.337808,-4.3299136,-2.6563668
9.374496,-4.334702,-3.1519666
9.40203,-3.0178912,-2.7724855
7.809886,-2.0135236,-2.0578163
6.9240313,-1.7070658,-1.3982137
7.9092455,-1.2401965,-2.0398598
8.183381,-0.18914193,-2.3594859
7.77517,0.039504327,-2.3702598
7.1371155,-0.5758055,-2.207454
7.524976,-0.90381116,-2.4265234
7.7703815,-1.2665327,-3.606865
9.097966,-1.8914193,-4.272453
8.771158,-2.4253263,-3.7553053
8.957906,-3.2489316,-3.0142999
9.478644,-3.9947255,-2.9484594
9.922769,-4.746505,-2.445677
10.0508585,-5.6563015,-2.0039468
9.827001,-6.465542,-2.4145525
9.962274,-6.884527,-3.0609868
10.617087,-7.1766195,-3.4488475
10.201694,-7.2185183,-2.790442
9.26197,-7.776367,-2.0494366
8.49343,-7.417237,-1.6101006
7.2628107,-6.417658,-1.3850456
8.054094,-6.26802,-0.5267244
8.573636,-5.73531,0.50038815
8.802282,-5.309142,1.388637
9.842564,-5.327099,-0.37708676
10.451887,-3.5529952,-2.1751323
10.019734,-2.7748797,-3.4165258
10.350134,-4.3023806,-4.9775453
8.111555,-4.0462008,-3.064578
8.366538,-3.5434184,-2.8574798
6.968324,-3.834314,-1.8423382
7.654263,-3.9145198,-1.3479356
9.759963,-4.1120415,-1.9117701
9.903615,-3.8055837,-2.019509
8.499416,-3.1184478,-2.007538
7.299921,-2.2014685,-0.16160862
6.3781533,-2.337938,0.61650693
7.529764,-3.063381,0.16519992
8.826224,-2.932897,-0.4249708
9.150639,-2.8981812,-0.33518824
8.852561,-3.1423898,0.3172317
8.428787,-3.1783028,0.93732995
7.961918,-3.0813377,1.1432313
7.8050976,-2.8658595,1.6280571
7.6865845,-2.5617957,1.8854338
7.872135,-2.304419,1.8734628
7.4950485,-2.1823149,1.8794483
7.6363063,-2.5438392,2.2457612
8.60117,-3.1914709,2.007538
9.937134,-3.582923,1.1264719
10.636241,-4.250905,1.1504139
11.534067,-5.7149596,2.3630772
12.078748,-6.92044,3.6523547
12.400767,-8.598776,4.8279076
13.565547,-9.870096,6.2105594
14.143746,-9.646238,5.3402667
14.875175,-7.809886,3.8893807
13.856442,-7.016208,2.6324248
11.890802,-6.623559,2.054225
10.152613,-5.2528787,2.1296425
9.611523,-3.560178,2.2589293
8.2516165,-1.7250223,2.2625206
5.781997,-0.5614403,0.8631097
4.185065,-0.05746084,0.0047884034
3.1902738,0.8858546,0.059855044
2.3295584,1.6867151,0.20709845
1.3395559,2.0350714,0.48243165
0.5770026,2.3008277,1.0055647
-0.5734113,2.3774424,0.8738836
-1.5861586,2.505532,1.2162545
-1.899799,2.6671407,2.9759927
-0.17357962,1.5957354,3.478775
-0.20709845,3.4332852,-0.2777274
0.7613561,0.33039984,3.2213984
8.613141,-2.6479871,-4.417302
16.196775,-15.404294,0.48482585
27.682957,-35.222298,4.614824
32.205605,-18.743008,4.284424
22.882584,-12.644977,6.5098343
10.801441,-11.751939,8.057686
6.489484,-6.0884547,5.6203885
8.244433,-4.259285,3.7469256
9.168595,-5.0374002,1.9261353
9.1350765,-3.4213142,1.9608512
8.391677,-1.7968484,3.4261026
7.7488337,-1.460463,3.8522706
6.483498,-0.50637364,3.5003228
5.6443305,0.6991069,1.9416976
4.5884876,1.2521675,1.1887212
3.2632968,2.1511903,1.614889
1.9476831,2.2864625,2.1080947
-0.5722142,3.0621839,2.9364884
-1.3922282,2.8682537,4.0497923
1.0845734,4.4113164,2.2110453
-1.9476831,5.058948,1.033098
-2.6659436,4.31076,-4.31076
6.4344172,-2.8742392,0.7386112
15.743073,-15.294161,-0.5231331
29.848513,-34.70635,4.4843397
28.055256,-16.604986,9.442732
18.175583,-13.005303,8.814254
8.981848,-11.616667,5.011064
8.009802,-4.945224,3.3075895
8.212111,-2.694674,3.0573955
6.9623384,-3.0119057,4.394557
6.027403,-1.7417817,4.096479
5.1523223,-0.33758244,2.694674
4.3766007,0.6835446,1.9752164
3.763685,1.1133038,3.0370448
2.6611552,1.3180081,3.5889084
3.7062242,0.6607997,2.823961
2.6886885,2.9759927,6.5349736
0.17836803,4.7680526,4.914099
4.7740383,-1.13964,17.763779
-11.394006,6.459556,-5.0266266
5.6778493,-5.7017913,-2.5785553
17.31726,-16.610971,-6.1447186
31.950623,-19.953278,-5.139154
26.114756,-10.90918,-1.4820108
15.412673,-10.758346,3.0214825
10.316615,-7.3226657,4.1299977
10.198102,-3.1495724,1.7525556
9.204509,-1.9069817,0.78410107
8.589199,-1.5634137,1.2126632
7.7727757,-0.78529817,1.6555905
5.7975593,-0.4417302,2.2649148
4.522647,-0.1592144,2.27928
4.0198646,0.40940848,4.1383777
4.578911,1.1552023,1.8590976
5.6467247,4.011485,1.7429788
-0.16280572,3.5230677,4.537012
-4.298789,1.7812861,-5.3941364
0.40821138,1.7286136,0.7661445
10.953473,-5.231331,-6.253655
18.000805,-16.613365,-0.61052144
22.02067,-15.591042,5.019444
16.059109,-10.699687,8.14268
9.715671,-14.348451,10.492589
11.664551,-10.271125,6.3230867
13.037625,-4.1216183,4.4125137
9.607931,-3.9432502,3.41892
7.1167645,-4.1335893,4.220978
4.687847,-1.5131354,5.566519
2.7090392,0.78649527,5.482722
3.667917,0.90859956,7.088034
1.4927847,1.0618285,14.81532
-4.152743,3.514688,-6.467936
4.175488,1.0510546,0.089782566
5.044583,-4.5262384,3.0621839
8.111555,-10.759542,8.10557
11.99495,-10.922348,9.703699
11.152191,-8.856153,10.693702
7.4363904,-8.918402,8.7771435
7.16824,-8.079233,6.7803793
5.9567738,-6.506243,5.723339
5.0278234,-3.843891,6.658275
3.405752,-3.715801,7.916428
2.5198972,-4.807557,8.651448
4.0557775,-4.909311,9.533711
4.5561657,-3.6296098,8.08881
6.339846,-3.3985693,7.061698
4.5633483,-4.4017396,10.223241
2.9317,-5.161899,-0.93852705
3.217807,-0.08738836,6.95755
2.9352913,-7.285556,3.3518825
2.954445,-6.9371996,10.070012
6.303933,-4.685453,9.768343
6.489484,-5.4671597,8.66701
2.8694508,-3.9695864,8.118738
2.208651,-4.8219223,8.185776
4.322731,-2.6479871,7.8050976
4.6603136,-1.091756,8.507795
5.765238,-3.0897174,9.4295635
6.3182983,-3.9851487,6.43322
8.37372,-2.5689783,2.7269957
11.85489,-2.741361,3.7014358
12.799402,-5.771223,17.454927
-4.794389,-1.3814543,8.172607
3.5110967,-7.78355,-0.076614454
10.546458,-9.82341,4.1455603
12.976573,-5.5641246,5.392939
8.820239,-5.5126495,4.847061
2.8538885,-7.6949644,7.843405
4.0761285,-7.48188,8.710106
7.231686,-4.3957543,8.963891
8.556877,-6.232107,8.89805
10.042479,-8.2516165,5.2049947
6.7624226,-6.194997,2.1655555
7.717709,-7.410054,4.0438066
8.237251,-5.795165,12.859258
-2.3714569,-5.473145,1.316811
2.2768857,-11.160571,2.0171149
7.7943234,-12.859258,4.225766
7.620744,-8.389283,3.8139634
8.826224,-7.589619,3.9947255
6.4020953,-8.016984,4.9284644
6.2368956,-6.591237,3.964798
6.319495,-5.145139,2.4875755
6.2285156,-5.321113,2.3678656
6.9707184,-6.1040173,2.3870192
7.9272017,-6.090849,1.733402
9.296685,-6.10282,1.0450691
10.214862,-5.8203044,0.2896984
10.352529,-5.7269306,-0.6739678
10.788273,-6.0405707,-1.4820108
10.732009,-5.831078,-2.304419
10.583569,-5.4264584,-2.9592333
10.503363,-5.070919,-3.217807
9.898827,-4.5082817,-3.359065
8.836999,-3.7110126,-3.4596214
8.095993,-3.0238767,-3.098097
7.2819643,-2.232593,-2.8263552
5.9005103,-1.009156,-2.7222073
4.5537715,0.046686932,-2.669535
4.0665517,0.80924016,-4.0174704
4.4843397,2.2864625,-5.2564697
5.195418,3.83192,-6.2632318
5.535394,4.485537,-6.5457473
6.9120603,3.9252937,-5.886145
8.8645315,2.755726,-7.026982
9.956287,2.2110453,-7.920019
10.693702,1.3946224,-6.6870055
10.727221,0.18914193,-5.461174
10.04607,-0.7553706,-4.2078094
9.054871,-1.6711528,-4.2461166
9.374496,-2.4313118,-2.7234044
10.359711,-4.128801,-1.578976
11.723208,-6.481104,-1.4101849
11.159374,-7.073669,-1.0067618
9.562442,-7.2568254,-0.4225766
8.92319,-8.498219,-0.62129533
11.247959,-10.193314,-0.8331822
11.893197,-12.271481,-1.9189527
11.621455,-13.851654,-2.9257145
11.098322,-13.444639,-4.1419687
9.367314,-11.924321,-5.2660465
6.2967505,-10.55005,-6.730101
4.3634324,-8.647857,-6.3709707
3.405752,-6.827066,-6.4631476
6.8186865,-8.001422,-6.870162
10.505757,-4.746505,-10.004171
4.5034933,-0.7565677,-9.279925
5.9388175,-3.594894,-8.943541
6.793547,-4.010288,-9.503783
3.3399115,-3.1890767,-8.64666
5.1690817,-4.2173862,-12.16853
6.2404866,-3.6415808,-13.247118
2.0266917,-4.462792,-11.976994
-0.03232172,-4.036624,-7.8589673
1.411382,-3.5242648,-5.031415
3.3243492,-3.3482912,-5.183447
3.3865983,-2.6060886,-9.275137
1.9644425,-1.8782512,-9.001001
0.47405192,-3.0969,-7.703344
2.3068132,-5.758055,-5.9304376
3.9109285,-5.009867,-9.555259
3.4344823,-4.0054994,-10.163386
0.82599956,-5.0026846,-9.956287
-0.33638534,-4.459201,-4.679467
2.9819782,-3.0765493,-7.2723875
3.4153287,-3.855862,-10.680533
2.9053638,-4.724957,-11.010934
1.1695676,-2.1894975,-8.543709
2.541445,-2.7461493,-9.38168
3.7014358,-2.8419175,-8.354567
3.7325604,-2.8862102,-8.383297
3.8774097,-3.5924997,-7.5465236
2.0709844,-3.894169,-3.513491
3.454833,-2.19668,-2.6479871
4.368221,-2.4480712,-4.036624
5.7808,-4.581305,-7.1670427
5.1319714,-3.4560301,-9.425972
5.591658,-3.0885203,-9.776723
5.1930237,-3.0813377,-10.097546
3.5362358,-2.397793,-9.969456
3.5565867,-1.1791444,-9.3182335
2.1152773,-0.2813187,-7.941567
2.5797524,-1.6663644,-6.4511766
7.285556,-7.1742253,2.859874
10.261548,-12.119449,-3.9492357
5.5365915,-2.8802247,-11.076775
0.7493851,0.51116204,-9.004593
3.4691982,-4.9105077,-9.956287
3.2501287,-5.2002063,-10.998962
5.8083334,-2.078167,-5.931635
7.5345526,-4.011485,-11.240777
3.8534677,-2.528277,-8.990228
4.847061,-5.2444987,-9.78989
4.867412,-3.3889925,-6.229713
4.619612,-2.5893292,-6.479907
3.9947255,-3.965995,-7.9224133
4.879383,-2.540248,-6.7863646
7.9571295,0.17956513,-3.1124623
6.3769565,-1.8902222,-4.5082817
2.5629928,-2.3702598,-4.63278
2.0757728,-5.9867015,-11.081563
1.2509704,-5.8226986,-11.050438
5.711368,-4.185065,-6.0597243
7.9427643,-3.2465374,-7.991845
4.0545807,-3.2225955,-7.00304
3.9935284,-2.4372973,-8.261193
4.6710877,-2.7281928,-7.5201874
4.673482,-2.0326772,-6.3206925
5.959168,-2.8898015,-7.6267295
6.2380924,-3.2728736,-8.907627
8.300697,-3.3183637,-7.538144
6.423643,-2.4959552,-5.9052987
4.332308,-3.9468415,-7.240066
4.473566,-3.5553896,-7.091625
4.1252093,-3.2477345,-5.777209
5.3163247,-3.1064768,-5.3402667
5.8825536,-4.2580876,-7.1646485
5.8442464,-4.024653,-6.695385
6.4032927,-4.7788267,-6.7971387
7.597999,-4.009091,-6.611588
7.2592196,-5.187038,-7.4806833
6.089652,-3.7253778,-6.2249246
6.3985043,-3.5446155,-5.602432
7.7488337,-3.6224272,-4.7896004
10.58716,-4.939238,-3.9827545
11.294646,-3.2225955,-2.4001873
8.186973,-2.3894134,-2.9041667
5.401319,-4.0174704,-3.7325604
6.7372837,-3.9815574,-1.7968484
5.753267,-3.301604,-2.658761
5.327099,-5.519832,-4.960786
4.871003,-7.7069354,-5.391742
6.751649,-4.0976763,-5.5617304
7.916428,-2.349909,-6.4463882
8.261193,-3.5661635,-5.961562
6.23091,-3.514688,-2.1667526
3.3770216,-3.5122938,-2.1272483
1.6136919,-3.7720647,-5.7245364
7.1610575,-5.732916,-8.173804
11.413159,-3.41892,-3.7445314
3.5182793,-2.3558946,-3.0933087
0.6356605,-4.6902413,-10.832565
9.436746,-3.90614,-9.927557
5.0122614,-0.25258827,-10.817003
4.426879,-3.7565024,-12.0488205
4.7177744,-4.4364557,-12.37084
5.0481744,-2.60968,-11.256339
2.5342624,-1.541866,-7.65546
1.7118542,-3.205836,-6.870162
2.585738,-3.9803603,-8.159439
3.383007,-3.4201171,-7.264008
4.4101195,-3.3997664,-6.707356
5.482722,-3.2968156,-6.884527
4.5513773,-3.525462,-8.532935
5.234922,-4.0186677,-7.0365586
5.815516,-2.6084828,-7.277176
2.741361,-2.825158,-5.8622026
3.6619315,-3.3877954,-7.6351094
5.8358665,-2.183512,-7.4627266
5.257667,-3.0382419,-8.152257
5.270835,-3.369839,-6.6606693
3.7672763,-2.906561,-6.5565214
5.571307,-3.0897174,-8.558074
7.52737,-1.9452889,-8.582016
5.922058,-2.825158,-7.133524
5.6000376,-1.8064252,-6.4990606
6.3721676,-3.645172,-4.584896
7.419631,-3.2848446,-5.103241
8.01459,-3.466804,-4.7560816
7.917625,-3.4512417,-5.321113
8.025364,-2.80361,-4.8877625
7.69257,-2.6312277,-4.1635165
7.289147,-3.430891,-4.4328647
7.8422074,-3.5482068,-3.0095115
8.680179,-3.7337575,-2.8443117
9.685743,-3.9983168,-3.0095115
9.949105,-3.5661635,-2.6192567
10.087969,-4.021062,-2.8083985
8.710106,-4.2760444,-0.8726865
8.672996,-4.271256,-0.21188685
9.842564,-4.5441947,0.985214
10.441113,-4.557363,1.555034
10.455479,-4.927267,1.9333179
9.23683,-5.333084,2.693477
9.064447,-5.6682725,3.228581
9.296685,-5.614403,3.3842041
9.23683,-5.3007627,4.0545807
9.312247,-5.0781016,5.0278234
8.711303,-5.0038815,5.60722
7.201759,-5.08289,5.3701944
6.8809357,-5.366603,4.871003
8.303091,-5.2049947,4.933253
9.460688,-5.225345,5.3941364
9.759963,-5.493496,6.0010667
8.848969,-5.3163247,6.4727244
8.204929,-4.7548847,6.7983356
7.988254,-4.325125,6.600814
7.9367785,-4.43885,6.9144545
8.183381,-4.7405195,7.1466923
7.9990277,-4.584896,6.8569937
6.9647326,-4.5920787,7.2831616
5.6706667,-4.679467,7.9272017
4.9823337,-4.333505,8.002619
4.7548847,-4.24492,7.547721
4.2173862,-3.90614,7.169437
3.525462,-3.8594532,7.479486
2.815581,-3.8235402,7.7213006
2.754529,-3.7313633,7.620744
2.4037786,-3.7660792,7.4256167
1.9249382,-3.7062242,7.2747817
1.3455414,-3.8307228,7.6027875
0.81043726,-4.1156325,8.033744
0.4321534,-4.209007,8.182184
0.28491,-4.3885717,8.3390045
0.20470424,-4.473566,8.219295
-0.36750996,-4.437653,8.392874
-0.8391677,-4.248511,8.221688
-1.0857705,-4.1132383,8.221688
-1.2258313,-3.8762126,8.171411
-0.9756372,-3.7014358,7.854179
-0.90141696,-3.6966474,7.878121
-1.0426749,-3.6379895,7.8948803
-1.2737153,-3.690662,8.141483
-1.2054806,-3.8283286,8.072051
-1.1073183,-3.9097314,8.085219
-1.388637,-4.056975,8.215703
-1.2653356,-4.8279076,9.726444
-2.9855695,-3.4033577,8.082825
-1.0259154,-4.593276,8.452729
-1.6639702,-4.9703627,8.874108
-2.066196,-3.4847605,8.623915
-1.412579,-4.209007,8.063671
-1.79206,-3.9121256,8.215703
-1.532289,-5.580884,9.536105
-3.8259344,-2.6312277,8.585608
-1.4089876,-4.4568067,9.090784
-2.3008277,-5.2540755,9.965864
-2.7964275,-4.3658266,9.193734
-1.9680338,-4.4436383,8.524555
-2.3511062,-4.3993454,8.708909
-2.2900538,-4.4208937,8.822633
-2.291251,-4.525041,9.354146
-2.2409728,-4.435259,9.372103
-2.3918076,-4.357447,9.283517
-2.6970682,-4.4017396,9.260772
-2.7808652,-4.3598413,9.179369
-2.586935,-4.378995,9.072827
-2.7700913,-4.367024,9.190144
-2.967613,-4.2640734,9.131485
-2.8742392,-4.2317514,9.075222
-2.693477,-4.1156325,8.7951
-2.4636335,-4.0162735,8.643068
-2.5713725,-4.0342298,8.644265
-2.7114334,-3.9073372,8.593987
-2.8682537,-3.8474822,8.649054
-2.8898015,-3.8522706,8.591593
-2.5330653,-3.9360676,8.499416
-2.4636335,-4.012682,8.520964
-2.5773582,-3.8762126,8.634688
-2.8311436,-3.8546648,8.726865
-2.883816,-3.807978,8.765172
-2.813187,-3.7229836,8.659827
-2.790442,-3.667917,8.485051
-2.6527755,-3.5338416,8.36175
-2.920926,-3.6595373,8.615535
-3.1136594,-3.6715083,8.881291
-3.1890767,-3.645172,8.835801
-3.1914709,-3.6882677,8.781932
-3.0466216,-3.7241807,8.723274
-2.8514943,-3.7098155,8.584411
-2.7509377,-3.5924997,8.42759
-2.8670566,-3.7600937,8.735245
-2.9951463,-3.799598,8.809465
-3.1016884,-3.763685,8.809465
-3.120842,-3.8402996,8.858546
-2.991555,-3.8989575,8.740033
-2.9472623,-3.9348705,8.623915
-3.1483753,-3.9743748,8.717288
-3.3985693,-4.0761285,8.908825
-3.454833,-4.056975,8.797494
-3.4452562,-3.9971197,8.742428
-3.4691982,-4.015076,8.831013
-3.3506854,-3.9755719,8.761581
-3.2190042,-3.9827545,8.665813
-3.0969,-3.821146,8.4647
-3.0609868,-3.8498764,8.4587145
-3.1376014,-3.9983168,8.668207
-3.122039,-3.9636009,8.841787
-2.9735985,-3.965995,8.639477
-3.2692823,-4.0378213,8.736442
-3.4524388,-4.1611223,8.694544
-3.5314474,-4.2700586,8.710106
-3.6415808,-4.3394904,8.808268
-3.702633,-4.4208937,8.698134
-3.7672763,-4.55856,8.750807
-3.9923313,-4.687847,8.829816
-3.9576154,-4.661511,8.700529
-3.9719806,-4.6830587,8.694544
-3.940856,-4.618415,10.59554
-5.064934,-4.2161894,7.237672
-1.6519991,-4.6255975,7.2987237
-3.7361517,-4.84347,9.455899
-5.189432,-4.739322,9.151836
-4.045004,-4.662708,8.508993
-4.110844,-4.423288,8.692149
-3.4213142,-4.629189,8.279149
-3.489549,-4.473566,8.485051
-3.6882677,-4.537012,8.972271
-3.5817258,-4.735731,9.187749
-3.288436,-4.546589,8.930372
-3.0753522,-4.4460325,8.998607
-2.743755,-4.4999022,8.977059
-2.5498247,-4.405331,8.990228
-2.505532,-4.3358994,9.089587
-2.6324248,-4.131195,9.091981
-2.789245,-3.9827545,9.096769
-2.822764,-3.7900212,8.949526
-2.7736826,-3.6583402,8.853758
-2.814384,-3.515885,8.823831
-2.9460652,-3.3806129,8.820239
-3.0370448,-3.3147724,8.814254
-3.1387985,-3.2968156,8.88608
-3.1974564,-3.3746274,8.957906
-3.084929,-3.3506854,8.86932
-2.9652188,-3.3123782,8.728063
-2.8538885,-3.3602622,8.722076
-2.8862102,-3.3686419,8.859743
-2.9616275,-3.3494883,8.88608
-2.966416,-3.25372,8.907627
-2.9652188,-3.2190042,8.930372
-2.9460652,-3.2609026,9.011775
-2.8814218,-3.2573113,9.0081835
-2.9101522,-3.3135753,9.041702
-3.0801406,-3.2441432,9.1829605
-3.144784,-3.264494,9.23683
-3.0561984,-3.2154129,9.2787285
-2.89459,-3.228581,9.238028
-2.919729,-3.2848446,9.337387
-2.6850972,-3.3614593,9.258378
-2.7150247,-3.3446999,9.340978
-2.7090392,-3.3327289,9.446322
-2.7856536,-3.311181,9.424775
-2.7210102,-3.2465374,9.355343
-2.6084828,-3.2728736,9.210494
-2.8383262,-3.2225955,10.1382475
-2.291251,-3.9827545,8.932767
-3.2202013,-2.5127146,9.454702
-3.357868,-3.122039,9.324219
-2.823961,-3.1962593,8.779537
-2.9041667,-2.6515784,8.726865
-2.456451,-3.0370448,8.783129
-2.5330653,-2.8083985,8.977059
-2.6563668,-2.8383262,9.3421755
-2.6431987,-2.9388826,9.363723
-2.48159,-2.9221232,9.382876
-2.2780828,-2.8754363,9.421184
-2.1691468,-2.6886885,9.3733
-2.0805612,-2.4887726,9.394848
-2.1667526,-2.3546975,9.561244
-2.2457612,-2.3774424,9.884461
-2.1284454,-2.3870192,9.763555
-1.9871874,-2.3714569,9.591172
-1.7872716,-2.5198972,9.488221
-1.6519991,-2.7569232,9.412804
-1.4401124,-2.7365725,9.48463
-1.4341269,-2.8622682,9.646238
-1.5286977,-3.1004913,9.822212
-1.5598224,-3.217807,9.726444
-1.3515269,-3.4081461,9.531317
