GYR_X,GYR_Y,GYR_Z
-0.70337415,0.08302405,0.49355033
-0.7012436,0.11604724,0.48289767
-0.6927215,0.078762986,0.46904925
-0.6841994,-0.0064581656,0.46052712
-0.6639593,-0.07783088,0.44135237
-0.6256098,-0.11191934,0.42430815
-0.5670203,-0.14813833,0.4040681
-0.5041697,-0.19820577,0.3774365
-0.43386224,-0.26425216,0.34654385
-0.36781582,-0.34521225,0.3113901
-0.3124221,-0.42617235,0.28369322
-0.25383255,-0.4602608,0.25599635
-0.18245982,-0.45280397,0.23149528
-0.10256499,-0.44641238,0.21551631
-0.021604894,-0.45813027,0.19421102
0.049767822,-0.53802514,0.1888847
0.09770472,-0.6434863,0.18036258
0.11048789,-0.7127285,0.19527629
0.0923784,-0.7084674,0.22084263
0.06148573,-0.6498779,0.24321319
0.02739727,-0.57637465,0.25386584
-0.0077564567,-0.5145893,0.23788686
-0.038649123,-0.43789026,0.18142785
-0.053562827,-0.2930143,0.113250926
-0.048236504,-0.12257199,0.06424876
-0.03758386,-0.014980281,0.03548662
-0.02053963,-0.0043276367,0.017377125
0.0060919807,-0.061851915,0.014181333
0.03485412,-0.1310941,0.019507654
0.06148573,-0.19074892,0.02589924
0.08066049,-0.25040373,0.031225564
0.081725754,-0.307928,0.033356093
0.068942584,-0.35053858,0.038682416
0.048702557,-0.3611912,0.040812943
0.021005683,-0.3462775,0.04933506
0.0028961876,-0.33029854,0.05679191
0.007157245,-0.31538484,0.04720453
0.015679361,-0.29834062,0.03548662
0.014614096,-0.287688,0.033356093
0.016744625,-0.2844922,0.022703448
0.023136212,-0.2749048,0.00885501
0.03272359,-0.2301637,-0.004993427
0.03911518,-0.19074892,-0.012450278
0.043376237,-0.18755312,-0.02949451
0.048702557,-0.22377211,-0.04440821
0.059355203,-0.2834269,-0.049734533
0.07107311,-0.3494733,-0.06145244
0.09450893,-0.4666524,-0.081692465
0.11687948,-0.6903579,-0.10086723
0.114748955,-0.9790446,-0.11791146
0.07533417,-1.2634702,-0.110454604
0.014614096,-1.50422,-0.08488826
-0.057823885,-1.7236644,-0.0326903
-0.081259705,-1.8600183,0.030160299
-0.04184492,-1.4967631,0.045074
0.0028961876,-0.79688436,0.09940249
0.024201477,-0.16198677,0.16438362
0.01994042,0.1266999,0.123903565
-0.003495399,0.07450193,0.05892244
-0.03438807,-0.179031,0.031225564
-0.063150205,-0.4783703,0.02057292
-0.0844555,-0.7777096,0.022703448
-0.094042875,-1.0621352,0.022703448
-0.07380285,-1.2815797,0.02057292
-0.03758386,-1.3806493,0.024833977
0.0028961876,-1.3849103,0.061052967
0.055094145,-1.404085,0.07703193
0.11794475,-1.5010241,0.053596117
0.18292588,-1.6395085,0.014181333
0.2361891,-1.7215339,-0.030559773
0.29051757,-1.6640096,-0.05825665
0.3469766,-1.3913019,-0.08914932
0.38106507,-1.0141983,-0.12430304
0.38532612,-0.72018534,-0.12749884
0.37786928,-0.58063567,-0.13389042
0.36082503,-0.5976799,-0.15093465
0.32034498,-0.68929267,-0.140282
0.2532333,-0.76066536,-0.11151987
0.18186061,-0.7990149,-0.07530088
0.113683686,-0.7979496,-0.03695136
0.062551,-0.7084674,-0.028429244
0.04231097,-0.5273725,-0.02736398
0.04231097,-0.2930143,-0.015646072
0.047637295,-0.042677157,-0.022037657
0.055094145,0.14693992,-0.031625036
0.070007846,0.23003054,-0.052930325
0.08811734,0.19168101,-0.085953526
0.11048789,0.059588227,-0.11151987
0.13392371,-0.07570035,-0.12749884
0.15949006,-0.15985624,-0.12110725
0.18612167,-0.19074892,-0.10938934
0.21381855,-0.18648785,-0.10832407
0.23512383,-0.20459735,-0.10299776
0.23831962,-0.2482732,-0.098736696
0.22660172,-0.30366695,-0.097671434
0.20849222,-0.35693017,-0.082757734
0.1882522,-0.38356176,-0.059321914
0.17014271,-0.37290913,-0.047604006
0.15735953,-0.34201646,-0.045473475
0.14457636,-0.28875324,-0.05399559
0.1254016,-0.23122896,-0.05825665
0.10516157,-0.20246682,-0.05399559
0.08705208,-0.20672788,-0.048669267
0.07639943,-0.24294686,-0.04014715
0.067877315,-0.2695785,-0.030559773
0.059355203,-0.2631869,-0.0326903
0.057224672,-0.2482732,-0.041212417
0.059355203,-0.2450774,-0.05399559
0.06148573,-0.25786057,-0.06997456
0.06468152,-0.29834062,-0.0806272
0.06361626,-0.3558649,-0.09341037
0.05615941,-0.39421442,-0.10299776
0.048702557,-0.40912813,-0.10512828
0.049767822,-0.40912813,-0.10832407
0.05615941,-0.36864808,-0.12430304
0.06468152,-0.287688,-0.13921675
0.07213838,-0.18116154,-0.14454307
0.0774647,-0.09380985,-0.15306519
0.081725754,-0.056525595,-0.15732624
0.085986815,-0.061851915,-0.15626098
0.08705208,-0.08209194,-0.15626098
0.08492155,-0.09487511,-0.16371782
0.07852996,-0.09380985,-0.17330521
0.07639943,-0.08848353,-0.17863153
0.08705208,-0.12257199,-0.18395784
0.11155316,-0.23122896,-0.19887155
0.14777215,-0.39527968,-0.23722108
0.1882522,-0.6285726,-0.2968759
0.22766699,-0.8821055,-0.3565307
0.27027756,-1.2634702,-0.41085917
0.30223548,-1.8642793,-0.48116663
0.30969235,-2.536461,-0.56106144
0.30223548,-3.0573754,-0.5983457
0.3107576,-3.3460622,-0.583432
0.34058502,-3.3950644,-0.583432
0.35762924,-3.2672327,-0.6228468
0.34378082,-2.9380658,-0.7038069
0.28519127,-2.442718,-0.74109113
0.1765343,-2.0219386,-0.7038069
0.049767822,-1.6714665,-0.6622616
-0.04504071,-1.3316472,-0.64734787
-0.13665345,-0.9992846,-0.62923837
-0.2431799,-0.7212506,-0.5493435
-0.3156179,-0.5369598,-0.46199188
-0.35290214,-0.4453471,-0.40553287
-0.36462003,-0.5167198,-0.34800857
-0.35183686,-0.66798735,-0.2819622
-0.33372736,-0.83949494,-0.19887155
-0.2932473,-0.9098024,-0.13282515
-0.23785357,-0.7095327,-0.15413044
-0.17393771,-0.32177645,-0.176501
-0.12813133,0.15120097,-0.20739366
-0.078063905,0.6817027,-0.2638527
-0.013082779,1.1056778,-0.24148212
0.0114183035,1.1653327,-0.15199992
-0.019474365,0.93310505,-0.045473475
0.0060919807,0.8915597,-0.014580807
0.07533417,0.9703893,0.012050804
0.114748955,1.0321747,0.082358256
0.1669469,1.1312443,0.16438362
0.22766699,1.0992863,0.25919214
0.28732178,0.8958208,0.3540007
0.35443345,0.56132776,0.39767653
0.40023983,0.39301598,0.33802173
0.3981093,0.41219077,0.25919214
0.36721662,0.5315004,0.19847208
0.2937134,0.48675928,0.13349095
0.2063617,0.3898202,0.048269793
0.15949006,0.27264112,-0.019907128
0.11048789,-0.0032623722,-0.0326903
0.06148573,-0.37823546,-0.018841865
-2.9960563E-4,-0.4517387,0.012050804
-0.07699864,-0.24081634,0.069575086
-0.17287244,-0.03202451,0.08981511
-0.26235464,-0.13535516,0.004593953
-0.38805586,-0.55826515,-0.09127984
-0.5084307,-1.1132679,-0.19674103
-0.57447714,-1.2070112,-0.2958106
-0.5190834,-1.0365689,-0.19354524
-0.36675057,-0.78623176,-0.10725881
-0.2698115,-0.3793007,-0.14880413
-0.26341993,0.04360926,-0.14454307
-0.2943126,0.015912388,-0.08914932
-0.26235464,-0.027763454,-0.10193249
-0.17180718,0.04787032,-0.110454604
-0.09084708,0.1384178,-0.017776601
-0.08871655,0.2428137,-0.030559773
-0.07486811,0.521913,-0.22656843
0.022070948,0.9746504,-0.305398
0.11581422,1.1685286,-0.23828633
0.14244583,1.1280484,-0.22656843
0.10516157,1.1024821,-0.18395784
0.0114183035,1.489173,-0.2063284
-0.0844555,1.871603,-0.13495569
-0.17393771,2.0186095,-0.06997456
-0.20589565,1.8194051,0.0067244815
-0.17819877,1.3208613,0.0599877
-0.13558818,0.68489844,0.098337226
-0.07380285,0.28648955,0.07277088
0.015679361,0.2854243,0.03442136
0.085986815,0.49634665,0.07277088
0.09770472,0.6731805,0.11431619
0.07533417,0.69448584,0.15479624
0.07107311,0.56558883,0.16438362
0.08918261,0.5741109,0.17929731
0.08918261,0.59541625,0.24108265
0.081725754,0.75733644,0.2964764
0.051898353,1.0257831,0.31352064
-0.0045606634,1.1791811,0.38063228
-0.07380285,1.3208613,0.39128494
-0.18459035,1.2111391,0.43815657
-0.28365993,0.81166494,0.45093974
-0.32733577,0.70833427,0.4136555
-0.44558012,1.2782507,0.56492305
-0.42960116,1.1418968,0.6916895
-0.41788325,0.7946207,0.6043378
-0.48392966,0.40686443,0.6714495
-0.5031044,0.08835037,0.70234215
-0.46901596,-0.1460078,0.5979462
-0.39444745,-0.26105636,0.524443
-0.28259468,-0.2450774,0.42963445
-0.15476295,-0.20992367,0.3721102
-0.053562827,-0.23442475,0.33163014
0.0028961876,-0.3409512,0.26451847
0.013548832,-0.4432166,0.19421102
0.0114183035,-0.45280397,0.14201306
0.0039614523,-0.27383953,0.050400324
0.015679361,-0.04906874,-0.009254484
0.050833087,0.063849285,-0.024168186
0.08492155,0.0063250074,-0.07317035
0.083856285,-0.24933845,-0.13708621
0.030593064,-0.6498779,-0.18928418
-0.046105977,-0.9279119,-0.23402528
-0.10469552,-0.8853013,-0.2542653
-0.159024,-0.68929267,-0.28622323
-0.21654828,-0.6552042,-0.36398754
-0.28472522,-0.8139286,-0.4726445
-0.36355478,-0.99502355,-0.5738446
-0.4349275,-1.1260511,-0.6409563
-0.4945823,-1.1122026,-0.6910237
-0.5446497,-0.9630656,-0.7293732
-0.5755424,-0.77664435,-0.7677228
-0.5915214,-0.6200505,-0.7879628
-0.5936519,-0.5177851,-0.7719838
-0.5712813,-0.48369664,-0.72830796
-0.5308013,-0.53802514,-0.64947844
-0.4881907,-0.69888,-0.5568004
-0.46368963,-0.8341686,-0.4577308
-0.43599275,-0.9268466,-0.34481278
-0.39657798,-0.91406345,-0.27663586
-0.3571632,-0.78303593,-0.23402528
-0.3326621,-0.642421,-0.23828633
-0.31881368,-0.5774399,-0.2787664
-0.28685573,-0.58809257,-0.32137695
-0.23785357,-0.72551167,-0.37250966
-0.23359251,-0.8810403,-0.4129897
-0.31348735,-0.9843709,-0.398076
-0.39764324,-1.085571,-0.3767707
-0.40510008,-1.0887668,-0.40446758
-0.3539674,-0.9907625,-0.40872866
-0.30176944,-0.8469518,-0.37250966
-0.2463757,-1.0408299,-0.35120437
0.021005683,-1.0930278,-0.33309487
0.6527075,-0.37503967,-0.140282
0.9371331,-0.6626611,-0.15945677
1.0649648,-0.9737183,-0.25639585
1.1480554,-1.1260511,-0.30752853
1.0649648,-1.4914367,-0.31924644
0.72514546,-1.4690663,-0.2872885
0.1285974,-1.4349778,-0.14773886
-0.55956346,-1.4349778,-0.009254484
-0.75663733,-0.2631869,0.023768712
-0.34118423,0.54321826,0.1558615
0.18079534,0.42816973,0.1888847
0.7326023,0.3898202,-0.16478309
1.3227588,0.4622582,-0.43003392
1.7243634,0.3962118,-0.44388238
2.0865533,0.35040542,-0.23722108
2.3954802,0.021238709,-0.0326903
1.9310248,-1.0408299,-0.030559773
0.54192,-1.1803795,-0.2819622
-0.8184227,0.22470422,-0.27130952
-1.7079185,1.4146045,-0.022037657
-1.8634471,1.263337,0.08661931
-1.4692992,0.4590624,0.095141426
-0.7768774,0.23003054,0.05892244
0.03698465,0.09154616,0.15799204
0.7336676,0.15226623,-0.035886094
1.3121061,0.37064543,-0.20206735
1.8287594,0.1863547,-0.16371782
1.9629828,-0.60620207,-0.26598322
1.3802831,-0.5976799,-0.25000423
0.17014271,-0.47623977,-0.25959164
-1.0634335,0.18955049,-0.17543574
-1.8037922,0.5101951,-0.04440821
-2.2384202,0.58369833,0.13668674
-2.2799654,0.8414923,0.3923502
-1.6450679,0.6529405,0.7161906
-0.62134874,0.018042916,0.7364306
0.2745386,-0.5167198,0.41259024
1.0021142,-0.49328402,0.3145859
1.4569821,-0.33349434,0.49461558
1.6093149,-0.4155197,0.5052682
1.3589778,-0.23762055,0.3689144
0.6836001,-0.32177645,0.26558372
-0.53186655,-0.24188161,0.0024634239
-1.7611817,0.22790001,0.050400324
-2.4184499,0.23322633,0.13136043
-2.7284417,-0.0682435,0.21125525
-2.6229806,0.30672958,0.29221535
-1.6993964,0.23535685,0.4733103
-0.48073387,-0.2450774,0.17823206
0.6921223,-0.33988592,-0.27130952
1.7115803,0.14480938,-0.022037657
2.0961409,0.1384178,0.13455622
1.6881446,-0.33349434,0.14946991
0.5355284,-0.9012803,0.015246597
-1.1230884,-0.40486705,0.09088037
-2.2842267,0.9096692,0.21977736
-2.7316377,0.6774416,0.30499852
-2.6389596,0.3812981,0.63096946
-1.7760954,0.21511683,1.3265871
-0.4104264,0.110720925,1.688777
0.98187417,0.24494424,1.3606756
2.0759008,0.022303974,1.0442921
2.6735141,-0.41338918,0.74708325
2.4093285,-1.1164637,0.24747424
1.2599082,-0.90767187,-0.2872885
-0.75983316,0.6529405,-0.44388238
-2.293814,1.6233964,-0.53442985
-2.7998145,0.53682667,-0.61752045
-2.7337682,0.079828255,-0.41512024
-2.189418,0.7615975,-0.07849667
-0.9877997,0.39195073,0.40939444
0.5142231,0.20552945,0.20486367
1.8798921,0.053196643,-0.004993427
2.8823059,-0.10552776,-0.12643357
2.906807,-1.2357733,-0.35440016
1.7115803,-1.3976935,-0.41831604
-0.44877592,0.31631696,-0.3714444
-2.109523,1.9312578,-0.22017685
-2.6027405,0.6891595,-0.2872885
-2.761465,-0.1758352,-0.3501391
-2.2959445,0.40899497,-0.0039281626
-1.1774168,-0.061851915,0.30393326
0.35443345,-0.19500998,0.14946991
1.855391,-0.31431958,0.065314025
2.966462,-0.30686274,0.16438362
3.1251862,-1.3359082,-0.085953526
2.0183766,-1.4498914,-0.05399559
-0.12706608,-0.27064374,-0.0657135
-2.1105886,1.3687983,-0.10619355
-2.9010146,0.95760614,-0.24680845
-3.0426948,0.06704508,-0.3533349
-2.431233,0.40047285,-0.10512828
-1.1774168,0.012716594,0.16651414
0.64418536,0.28329375,0.2900848
2.390154,-0.17690048,0.37637123
3.2040157,-1.1793143,0.15905729
2.862066,-1.7598834,-0.28941903
1.3781526,-1.0365689,-0.40553287
-1.1870042,0.727509,-0.77731013
-2.6634607,0.9384314,-0.547213
-2.7646608,-0.07996141,-0.4822319
-2.6911576,0.6646584,0.1409478
-1.6269584,0.9586714,0.78649807
-0.02267016,0.7456185,0.6916895
1.5443338,0.42710444,0.7279085
2.7587352,-0.5476125,0.28262797
3.4809844,-1.5894411,-0.49181926
2.6841667,-1.750296,-0.82950807
0.31182286,-0.47517452,-0.4460129
-2.0871527,1.263337,-0.20739366
-3.0618696,0.87877655,-0.0806272
-3.1087413,-0.31858066,-0.07636614
-2.7401597,0.4793024,0.15799204
-1.4234929,0.25346637,0.4104597
0.3139534,0.3663844,0.25599635
1.9448732,0.07130614,0.24108265
3.168862,-0.19927102,0.2037984
3.4777887,-1.0269815,0.1409478
2.1462083,-1.0525478,0.15905729
-0.36142424,0.2161821,0.24640898
-2.3971446,1.0311093,-0.03908189
-3.0661306,0.2428137,-0.22976422
-3.0096717,0.3120559,-0.29794115
-1.9550599,0.31525168,0.11964251
-0.35822845,0.45480132,0.062118232
1.5752264,0.501673,0.24001738
3.1901674,0.15120097,0.28156272
3.648231,-1.210207,-0.098736696
2.3613915,-1.5862453,-0.23402528
-0.23572305,-0.37717018,-0.098736696
-2.4663868,0.6209826,-0.398076
-3.1034148,-0.2184458,-0.5844973
-3.055478,0.035087146,-0.55253935
-1.8719692,0.62417835,0.28156272
-0.029061746,1.09396,0.23469107
2.020507,0.7679891,0.5798367
3.6631448,-0.8767792,0.3657186
3.3201296,-2.2392523,-0.37037912
1.3014535,-1.3412344,-0.1914147
-1.1337409,0.36744964,-0.13602096
-2.5814352,0.7370964,-0.42257708
-2.7998145,-0.28023112,-0.62391204
-2.3417509,0.84362286,-0.26278743
-0.81629217,1.4955647,0.22084263
1.0958575,1.1056778,0.21977736
2.5797708,-0.81286335,0.2219079
3.1869717,-2.5971813,-0.48436242
2.633034,-1.8770626,-0.64947844
1.041529,-0.3473428,-0.32776853
-1.1113704,0.1384178,-0.5376257
-2.3982098,-0.75640434,-0.7719838
-2.987301,-0.63709474,-0.77731013
-2.5686522,0.8148607,0.07277088
-1.041063,1.1110042,0.36465332
0.89345723,0.9000819,0.4466787
2.7118635,0.42816973,0.49781138
3.7441049,-1.4136724,0.31991223
2.71719,-2.3202126,0.3625228
-0.13984925,-0.5326988,0.15799204
-2.8317726,1.1493537,-0.059321914
-3.539108,0.6113952,-0.15626098
-3.3889058,0.5155214,-0.19993682
-1.8986008,0.0723714,0.4914198
0.13179319,0.3482749,0.5926199
2.3571305,0.9235177,0.730039
4.039183,0.65187526,0.56492305
3.7803237,-1.5915717,-0.16797888
1.4665695,-1.9931763,-0.48862347
-1.6599816,0.8819724,-0.16904415
-3.5167375,1.7895776,-0.19887155
-3.740443,-0.14707308,-0.21591578
-2.596349,0.6231131,0.25067005
-0.82055324,0.3024685,0.95374453
1.210906,0.2310958,0.95480984
3.1614053,0.49847716,0.42111236
3.974202,-0.3473428,0.08661931
2.6000109,-1.2091417,-0.09341037
-0.41468745,-0.92897713,-0.21271999
-2.7401597,1.1940949,-0.047604006
-3.2536173,0.26305375,-0.10299776
-3.1183286,0.078762986,-0.398076
-1.5161709,0.8553408,0.4818324
0.34591132,1.057741,0.8120644
2.1920147,0.1384178,0.75667065
3.6492963,-1.1995543,0.42643866
3.2807148,-1.7556224,-0.22443789
0.9307415,-0.9374993,0.25067005
-1.7366806,0.4622582,-0.03908189
-3.265335,0.9799767,-0.4279034
-3.5945017,-0.5571999,-0.45133922
-2.660265,0.51126033,-0.45346975
-0.8120311,0.687029,0.1409478
1.1278154,0.7360311,0.42643866
3.011203,-0.059721388,0.61285996
3.9614189,-1.286906,0.10366354
3.1092072,-1.669336,-0.176501
0.4428504,-0.714859,0.15373097
-2.212854,1.0790462,-0.39914125
-3.4187331,1.2143348,-0.5844973
-3.4602785,-0.48582715,-0.3735749
-2.0946095,0.7466838,-0.27130952
-0.25276726,1.021522,0.39874178
1.6828182,0.8265786,0.6000768
3.3893719,-0.20140156,0.5063335
3.7494311,-1.6490959,-0.020972393
2.317716,-1.4434999,0.15373097
-0.20376511,-0.09061406,0.3124554
-2.434429,0.9224524,-0.11684619
-3.261074,0.20552945,-0.34800857
-3.1833098,0.08621984,-0.377836
-1.6802216,0.85214496,-0.19461049
0.16801217,0.8532102,0.0930109
2.0663133,0.3994076,0.23575634
3.4351783,-0.694619,0.27091005
3.378719,-1.7513613,-0.21058947
1.93209,-1.7215339,0.0599877
-0.24211463,-0.33562487,0.10472881
-2.1105886,0.7850333,-0.38955387
-2.7188544,-0.095940374,-0.434295
-2.3854268,0.20659472,-0.93496925
-1.2605075,1.3208613,-0.44175184
0.30436602,0.727509,0.00885501
1.6966666,-0.62963784,0.6022073
2.3922844,-1.3518871,0.45626608
1.9384817,-0.51565456,0.3625228
0.5142231,-0.4240418,0.62138206
-1.1262841,-0.18755312,-0.08701879
-2.0264325,-0.12896357,-0.42470762
-2.2277675,0.078762986,-0.5685183
-1.8421417,1.3815814,-0.4556003
-0.92601436,1.6553544,-0.490754
-0.16328506,0.7669238,-0.51845086
0.08811734,0.07663246,-0.50140667
-0.053562827,0.42071286,-0.32137695
-0.3752727,1.2569455,-0.13069463
-0.62454456,1.7927735,-0.11578093
-0.6724815,1.8886472,-0.18395784
-0.59258664,1.9195399,-0.25213477
-0.5041697,1.7693377,-0.30646327
-0.41149166,1.2324444,-0.28835377
-0.32840106,0.71153,-0.30646327
-0.2612894,0.4824982,-0.3650528
-0.20376511,0.35573173,-0.3650528
-0.15689348,0.2460095,-0.36292228
-0.11215237,0.2609232,-0.361857
-0.04184492,0.38875493,-0.33309487
0.067877315,0.5101951,-0.23615581
0.16375111,0.4164518,-0.14667359
0.2447112,0.18209364,-0.025233451
0.32247552,-0.0384161,0.10153302
0.37254295,-0.14707308,0.21338578
0.3533682,-0.23868582,0.28369322
0.30649656,-0.23229423,0.3145859
0.25855964,-0.31005853,0.33695644
0.18292588,-0.39101863,0.32417327
0.10516157,-0.41125864,0.30286798
0.09450893,-0.25786057,0.2847585
0.06468152,-0.09274458,0.24108265
0.055094145,-0.028828718,0.20912473
0.17973009,0.009520801,0.19634154
0.45989463,-0.11191934,0.16438362
0.8146277,-0.43789026,0.081292994
1.2023839,-0.68609685,-0.033755567
1.5667044,-0.81499386,-0.10406302
1.798932,-0.78303593,-0.009254484
1.4569821,-0.78836226,0.26877952
-0.07380285,-1.2964934,0.43815657
-1.7515943,-1.56494,0.63736105
-2.6591997,-1.2815797,0.94841826
-2.5558689,-1.2592092,0.95480984
-1.117762,-0.78623176,0.9239172
0.98507,0.18955049,0.7151253
2.6841667,0.37277597,0.40513337
3.8953724,-0.40912813,0.080227725
3.7398438,-0.5412209,0.030160299
1.6316855,-1.0877016,0.28262797
-1.0783472,-0.7532085,0.10366354
-2.8402946,-0.60620207,-0.2606569
-3.4442995,-1.1271163,-0.02949451
-3.0469558,-0.8362992,0.2911501
-1.1358715,0.55280566,0.49568087
1.1778829,1.2420317,0.452005
3.0410304,0.35147068,0.1409478
3.8527617,-0.9875667,-0.24787372
3.2711275,-0.7436212,-0.25000423
1.4729611,-1.1239206,0.15160045
-0.72361416,-0.32497224,-0.2606569
-2.2043316,0.065979816,-0.21165472
-2.4663868,-0.17796575,-0.10832407
-2.1883528,-0.054395065,-0.017776601
-1.1880695,0.4196476,0.16118783
0.3799998,0.9117998,0.38169757
1.3973273,-0.022437133,0.26877952
1.4356768,-1.105811,0.017377125
0.9520468,-0.36971334,0.25812688
0.4662862,0.89262503,0.6267084
-0.08232497,1.3581456,0.4552008
-0.3294663,1.2846423,0.2943459
-0.16541559,1.6031563,0.36145753
-0.08765129,3.0955918,0.33695644
-0.07273759,4.0394163,0.43709132
0.13925004,5.057809,0.31032485
0.28412598,5.939848,0.081292994
-0.0066911923,5.7619486,-0.057191383
-0.4136222,5.716142,-0.34800857
-0.62880564,6.3808675,-0.64947844
-0.6117614,7.2511883,-0.74109113
-0.45410225,7.1180305,-0.67824054
-0.18352509,5.5169377,-0.8486829
0.07959522,3.978696,-0.9765146
0.34484607,3.4215627,-0.5962152
0.26069018,3.4822829,-0.14241254
-0.015213308,2.9624338,0.0930109
-0.27407256,1.907822,0.31884697
-0.50736547,0.85427547,0.39767653
-0.48499492,0.35360122,0.5510746
-0.26448518,0.031891353,0.766258
-0.038649123,-0.89382344,0.4914198
0.17440376,-1.5830495,-0.26172215
0.04231097,-0.82138544,-0.7719838
-0.031192275,0.36531913,-0.20313261
-0.063150205,1.7746639,0.0780972
0.099835254,2.2764034,0.2730406
0.15309848,2.1230054,0.24108265
0.14351109,1.4412361,-0.2777011
0.38958716,0.54321826,-0.5695836
0.6069011,-0.4485429,-0.38848862
0.66016436,-0.843756,-0.39594546
0.68892646,-1.5180684,-0.07317035
0.85830355,-3.437675,0.33056486
1.2151672,-5.900566,0.45307028
1.4559169,-7.676362,0.13988253
1.8117152,-8.849218,0.048269793
1.859652,-8.348544,0.13881727
1.5912055,-6.795388,0.19314575
1.3334115,-5.6193366,0.08874984
1.0852048,-5.142098,0.1079246
0.6899918,-4.9386325,0.061052967
0.14883742,-4.7458196,0.00885501
-0.30389997,-4.6360974,0.11218566
-0.44238433,-3.6209004,0.098337226
-0.41788325,-1.3870409,-0.10938934
-0.21548302,0.35360122,-0.25106952
-0.0993692,0.8532102,-0.3320296
-0.19098194,0.054261908,-0.34481278
-0.28046414,-1.14203,-0.2936801
-0.18139456,-1.8280604,-0.48755822
-0.12813133,-1.3476261,-0.37570545
-0.31029156,0.34720963,-0.22337264
-0.5350624,1.8204703,-0.031625036
-0.57660764,1.7725334,0.34228277
-0.69591725,0.3035338,0.4583966
-0.8056395,-0.61898524,0.16438362
-0.5276055,-0.19181417,0.19634154
0.100900516,0.41858235,0.33908698
0.53765893,1.4135393,0.31671643
0.54298526,2.0281968,0.41685128
0.27879968,2.2231402,0.5904894
0.10516157,2.294513,0.7066032
0.12753212,2.6353977,0.6064684
0.13605425,3.1296804,0.27943218
0.07959522,3.7837527,0.009920275
-0.107891314,3.9307592,-0.16584836
-0.43279696,3.784818,-0.46838346
-0.6479804,3.7699041,-0.6143247
-0.7406584,4.5912232,-0.65587
-0.6522414,5.9014983,-0.51418984
-0.48925596,6.163553,0.07064035
-0.3710116,4.80108,0.57344514
-0.55636764,3.2383373,0.3294996
-0.7406584,1.9493673,0.042943474
-0.8642291,2.1464412,0.3508049
-0.82055324,2.1240706,0.72897375
-0.61495715,1.3954298,0.8003465
-0.35929373,-0.3622565,0.3145859
-0.23252726,-1.5170032,-0.5397562
-0.29005152,-0.5263072,-0.63136894
-0.3156179,1.0833074,0.10259828
-0.18991667,1.8779947,0.3710449
0.035919383,1.5040869,0.21338578
0.4247409,0.2161821,-0.29154956
0.82847613,-0.4421513,-0.5397562
0.8380635,-1.3742577,-0.11578093
0.7560381,-2.7175562,-0.057191383
0.92541516,-4.186556,-0.1136504
1.2939967,-5.440372,-0.0657135
1.4985274,-5.957025,0.098337226
1.7307551,-6.847586,0.3657186
1.8138458,-7.645469,0.37956703
1.710515,-7.289671,0.23575634
1.3781526,-6.265952,-0.015646072
0.97122157,-4.691491,-0.035886094
0.5909222,-2.4629579,-0.016711336
0.13285846,-0.2866227,-0.10512828
-0.416818,0.9746504,-0.13282515
-0.63945824,1.4476278,-0.26491794
-0.61495715,0.562393,-0.24574319
-0.67567724,-0.49221873,-0.30646327
-0.7811384,-1.0482868,-0.114715666
-0.70337415,-1.2368386,0.12816462
-0.2932473,-1.468001,0.17823206
0.3917177,-1.2165985,0.0930109
0.95311207,-0.22909842,0.12816462
0.42047983,-0.67544425,0.17929731
-0.8748817,-0.6562695,0.15373097
-1.8165754,-0.6882274,0.40832916
-2.1116538,-1.1601396,0.52018195
-1.7089838,-1.1963586,0.48715875
-0.31881368,-0.7723833,0.2996722
1.2183629,-0.6200505,0.05892244
2.2996063,-0.5912883,-0.060387176
2.6021414,-0.45706502,-0.13815148
1.8127805,0.6327005,0.08981511
0.546181,0.4377571,0.2730406
-0.6596983,0.08089352,0.19634154
-1.2232232,0.2822285,0.21125525
-1.2615727,0.4622582,0.266649
-1.0037787,0.36212334,0.28688902
-0.58832556,0.2758369,0.11644672
0.0018309233,0.48888978,0.06424876
0.6580338,0.5645236,0.07170561
1.077748,0.9320398,-0.025233451
1.2971925,1.6202006,0.042943474
1.4058495,1.8439062,0.19953734
1.4569821,1.6532239,0.27197534
1.5081148,1.2601413,0.36465332
1.4612432,0.6113952,0.43922183
1.3025188,0.19274628,0.42111236
1.0947922,0.064914554,0.42750394
0.76775604,-0.16944362,0.44454816
0.40343562,-0.27597007,0.35719648
0.2511028,-0.12470252,0.41259024
0.18612167,-0.2663827,0.4104597
0.15203321,-0.70207584,0.31671643
0.12966265,-1.0866363,0.22616896
0.11794475,-1.2901018,0.1824931
0.08811734,-1.508481,0.12922989
0.016744625,-1.6970328,0.057857174
-0.054628093,-2.012351,0.054661382
-0.10469552,-2.3244736,0.080227725
-0.14304504,-2.3819978,0.1228383
-0.20909144,-1.9974374,0.2006026
-0.2762031,-1.085571,0.19634154
-0.2793989,0.010586065,0.1707752
-0.24211463,0.7701196,0.16118783
-0.23359251,0.83190495,0.11218566
-0.24424516,0.5304351,0.03442136
-0.26235464,0.2428137,-0.0017976337
-0.24957149,0.16398415,-0.022037657
-0.21548302,0.3056643,-0.047604006
-0.19311246,0.4739761,-0.06358297
-0.21335249,0.48782453,-0.024168186
-0.25702834,0.5123256,0.007789746
-0.23891884,0.78077227,0.0056592175
-0.16328506,1.0928947,0.010985539
-0.09297761,1.0960906,0.061052967
-0.07699864,0.83829653,0.06637929
-0.08552076,0.62417835,0.050400324
-0.07167232,0.6113952,0.04933506
-0.03438807,0.77544594,0.051465586
-0.033322804,0.9363009,0.057857174
-0.05888915,0.97145456,0.057857174
-0.067411266,1.0598716,0.03442136
-0.04504071,1.2920991,0.0599877
-0.036518596,1.3506887,0.111120395
-0.07593338,1.279316,0.07916246
-0.13239239,1.2867728,0.032290827
-0.15369768,1.4050173,0.04187821
-0.16115454,1.6468322,0.06637929
-0.1771335,1.7693377,0.108989865
-0.19311246,1.6628112,0.0930109
-0.21548302,1.4369751,0.055726644
-0.21974407,1.3592108,0.055726644
-0.20376511,1.351754,0.040812943
-0.19950405,1.3421665,0.040812943
-0.2101567,1.299556,0.03761715
-0.20589565,1.1482885,0.029095035
-0.17287244,0.8755808,0.03761715
-0.13239239,0.6167215,0.024833977
-0.11321764,0.44840974,0.024833977
-0.09510814,0.3749065,0.016311862
-0.079129174,0.33123067,0.009920275
-0.07380285,0.26518425,0.0013981595
-0.063150205,0.25985795,-0.02736398
-0.046105977,0.19274628,-0.059321914
-0.03545333,0.064914554,-0.066778764
-0.04504071,-0.016045546,-0.067844026
-0.050367035,-0.042677157,-0.10086723
-0.053562827,-0.12683305,-0.13389042
-0.051432297,-0.23442475,-0.14773886
-0.031192275,-0.36864808,-0.15093465
-0.0045606634,-0.63922524,-0.14560834
0.0018309233,-0.9907625,-0.13602096
-0.0077564567,-1.1803795,-0.12536831
-0.0066911923,-0.92045504,-0.14773886
0.0050267167,-0.39101863,-0.13495569
0.015679361,0.027630296,-0.09980196
0.012483568,0.08621984,-0.09234511
-2.9960563E-4,-0.13961622,-0.07530088
-0.015213308,-0.5081977,-0.0507998
-0.018409101,-0.7659917,-0.048669267
-0.016278572,-0.8384297,-0.03908189
-0.017343836,-0.80114543,-0.012450278
-0.0141480435,-0.8000802,0.009920275
-2.9960563E-4,-0.79475385,0.012050804
0.022070948,-0.69248843,0.022703448
0.047637295,-0.5081977,0.024833977
0.06042047,-0.17050889,0.021638183
0.06468152,0.064914554,0.010985539
0.051898353,0.1948768,-0.024168186
0.035919383,0.22896527,-0.060387176
0.022070948,0.17570205,-0.059321914
0.009287775,0.11285145,-0.07103982
-0.008821721,0.107525125,-0.06997456
-0.0141480435,0.13948306,-0.057191383
-0.012017515,0.2012684,-0.07743141
-0.0045606634,0.20979051,-0.051865064
0.010353039,0.14054832,-0.038016625
0.0114183035,-0.010719223,-0.09341037
0.01994042,-0.070374034,-0.13602096
0.051898353,-0.042677157,-0.1317599
0.09131314,0.01165133,-0.12323778
0.1254016,0.054261908,-0.13389042
0.17014271,-0.008588694,-0.10619355
0.2180796,-0.116180405,-0.08808405
0.30010498,-0.27597007,-0.055060856
0.3736082,-0.3654523,0.0024634239
0.42900196,-0.39101863,0.081292994
0.48013467,-0.37290913,0.13136043
0.47693884,-0.3047322,0.16331835
0.42580616,-0.20779315,0.12070777
0.4162188,-0.11085408,0.07703193
0.41515353,-0.25359952,0.13881727
0.38745666,-0.6488126,0.15692677
0.3586945,-0.9172593,0.14307833
0.36721662,-0.7798401,0.15373097
0.37893453,-0.45813027,0.18355837
0.38532612,-0.25892583,0.1888847
0.36721662,-0.3015364,0.13988253
0.33419344,-0.40806285,0.0749014
0.3139534,-0.4400208,0.022703448
0.24897227,-0.3473428,0.029095035
0.12007528,-0.26212162,0.05892244
0.016744625,-0.35479963,0.026964506
-0.025865952,-0.46771768,-0.045473475
-0.08552076,-0.5955494,-0.10086723
-0.18672088,-0.68396634,-0.13921675
-0.30603048,-0.69248843,-0.1317599
-0.416818,-0.6882274,-0.15306519
-0.46368963,-0.6243115,-0.18289259
-0.4498412,-0.40912813,-0.18715364
-0.3656853,-0.08848353,-0.19247997
-0.2580936,-0.04906874,-0.09447564
-0.1441103,-0.31005853,-0.055060856
-0.03971439,-0.43789026,-0.015646072
0.030593064,-0.42297655,0.065314025
0.12753212,-0.17050889,0.12922989
0.22021013,-0.06398244,0.20805946
0.2542986,-0.098070905,0.2762364
0.16481638,-0.22057632,0.3902197
-0.008821721,-0.13535516,0.39661127
-0.27407256,-0.043742422,0.24214792
-0.52547497,-0.18542258,-0.02736398
-0.7374626,-0.6498779,-0.21804631
-1.065564,-1.1814449,-0.4364255
-1.3105749,-1.1345732,-0.3948802
-1.3095096,-0.5774399,-0.22230737
-0.8887301,-0.09913617,-0.014580807
-0.05675862,0.0031292143,0.23575634
0.6825349,-0.40167126,0.31032485
1.1682955,-0.6765095,0.25386584
1.4303505,-0.9854362,0.2549311
1.4239589,-0.72018534,0.34015223
0.9914616,-0.18222679,0.24960478
0.32034498,0.022303974,-0.030559773
-0.36035898,-0.23122896,-0.35440016
-0.6639593,0.03082609,-0.36398754
-0.8823385,-0.116180405,-0.34268224
-1.0112356,-0.027763454,-0.21378526
-0.90151334,0.25346637,-0.1615873
-0.64904565,0.48462874,-0.13069463
-0.23465778,0.5815678,-0.10938934
0.23831962,0.63056993,0.0035286883
0.6015748,0.7679891,0.044008736
0.80397505,0.62524366,0.13136043
0.88067406,0.39301598,0.23149528
0.8082361,0.2790327,0.37956703
0.5280715,0.33123067,0.44135237
0.06361626,0.12989569,0.28156272
-0.53186655,-0.40486705,-0.06464823
-0.8567722,-0.5263072,-0.10725881
-0.84931535,-0.51565456,-0.05399559
-0.86316377,-0.61259365,-0.14667359
-0.7992479,-0.42617235,-0.21804631
-0.6096309,-0.2120542,-0.07849667
-0.34970635,-0.07463509,0.07383614
0.03698465,0.123504095,0.21658157
0.45669883,0.34081805,0.24427845
0.7720171,0.20233366,0.15479624
0.9733521,-0.287688,0.09194563
1.1310112,-0.55187356,-0.035886094
1.0820091,-0.5167198,-0.1317599
0.74964654,-0.29834062,-0.16584836
0.22021013,-0.10978881,-0.22017685
-0.3358579,0.15226623,-0.24680845
-0.618153,0.63056993,-0.10832407
-0.63306665,1.1653327,0.081292994
-0.5542371,1.4689331,0.039747678
-0.45090646,1.2686634,0.032290827
-0.37846848,0.79355544,0.012050804
-0.3539674,0.6113952,-0.015646072
-0.32413998,0.928844,-0.007123956
-0.2548978,1.3581456,0.010985539
-0.13771872,1.4774551,-0.05825665
-0.021604894,1.2281833,-0.16904415
0.02526674,0.6593321,-0.24680845
-2.9960563E-4,0.058522966,-0.32137695
-0.017343836,-0.044807684,-0.35226962
0.0060919807,0.14374413,-0.28622323
0.03911518,0.2310958,-0.16584836
0.085986815,0.121373564,-0.083822995
0.1371195,-0.13215937,-0.016711336
0.16907744,-0.5891578,0.05253085
0.18186061,-0.90767187,0.065314025
0.19357853,-0.8022107,0.08661931
0.21381855,-0.48369664,0.16438362
0.22447118,-0.069308765,0.2006026
0.2361891,0.18528943,0.22403842
0.23192804,0.15546203,0.24108265
0.21275328,0.15759255,0.2485395
0.17866482,0.24920529,0.27197534
0.13392371,0.33975276,0.30499852
0.1072921,0.56132776,0.29221535
0.100900516,0.86173236,0.2879543
0.20103537,0.9075387,0.29860693
0.37573874,0.5602625,0.2879543
0.41834933,0.6742458,0.17184047
0.37573874,0.81592596,0.15373097
0.30117023,0.72431326,0.21551631
0.17759955,0.42497393,0.24427845
0.09557419,0.17037573,0.18675417
0.098769985,0.23748739,0.16757941
0.1285974,0.20552945,0.20166788
0.12753212,0.16398415,0.21338578
0.100900516,-0.016045546,0.22510369
0.099835254,-0.27064374,0.22936475
0.12114054,-0.45280397,0.18142785
0.11048789,-0.58489674,0.16225308
0.081725754,-0.70207584,0.10046775
0.045506764,-0.8022107,0.02589924
-0.0024301345,-0.9737183,-0.045473475
-0.05675862,-1.1367037,-0.1317599
-0.10363025,-1.2560134,-0.18182732
-0.1622198,-1.4168682,-0.25320002
-0.20483038,-1.5180684,-0.31498536
-0.20483038,-1.556418,-0.34587803
-0.19630826,-1.4136724,-0.38529283
-0.16008927,-1.2805145,-0.361857
-0.11321764,-0.8181897,-0.30433273
-0.091912344,-0.09913617,-0.15199992
-0.111087106,0.052131377,0.1260341
-0.15263242,-0.0032623722,0.15692677
-0.13132714,0.10006828,0.10579407
-0.10469552,0.27477163,0.12070777
-0.13026187,0.34934014,0.1079246
-0.13984925,0.6614626,0.023768712
-0.1622198,1.0247178,-0.08808405
-0.17606823,1.3975604,-0.17437047
-0.124935545,1.6521585,-0.21485052
-0.04291018,1.4508235,-0.16691361
0.02526674,1.1472232,-0.14986938
0.041245706,0.799947,-0.15519571
0.0018309233,0.40899497,-0.14134727
-0.019474365,0.31631696,-0.10193249
-0.01095225,0.3962118,-0.007123956
-0.040779654,0.28648955,0.065314025
-0.08978182,0.1053946,0.14733939
-0.091912344,0.16717994,0.16757941
-0.051432297,0.3088601,0.18675417
-0.019474365,0.38768968,0.17929731
-0.005625928,0.47078028,0.12922989
0.0018309233,0.4761066,0.0780972
0.018875154,0.39301598,0.032290827
0.067877315,0.40579918,0.0035286883
0.2031659,0.25133583,-0.0060586915
0.36615136,-0.086353,0.024833977
0.47800413,-0.100201435,0.032290827
0.48226517,0.107525125,0.038682416
0.41195774,0.5485446,0.062118232
0.3107576,0.8212523,0.057857174
0.22660172,0.7850333,0.009920275
0.16375111,0.80740386,-0.057191383
0.041245706,0.7882291,-7.323693E-4
-0.09297761,0.7221827,0.08874984
-0.1984388,0.5517404,0.13242568
-0.28046414,0.5155214,0.16544887
-0.33372736,0.7466838,0.18462364
-0.36462003,0.89688605,0.23043
-0.41149166,1.0396315,0.20699419
-0.44877592,1.0289788,0.21018998
-0.44558012,0.7381617,0.23575634
-0.43386224,0.3482749,0.2336258
-0.42534012,0.15972309,0.22936475
-0.39444745,0.26305375,0.23043
-0.35503265,0.4611929,0.24960478
-0.32627052,0.59541625,0.25706163
-0.3177484,0.5741109,0.23895213
-0.31987894,0.4558666,0.18355837
-0.32307473,0.3056643,0.12816462
-0.33053157,0.2790327,0.08981511
-0.34651056,0.320578,0.06850982
-0.380599,0.3482749,0.045074
-0.41255695,0.4079297,0.009920275
-0.44131908,0.49528137,0.01844239
-0.45729804,0.5911552,0.05679191
-0.47221175,0.6028731,0.113250926
-0.48286438,0.5730457,0.16331835
-0.49245176,0.578372,0.20912473
-0.50523496,0.68809426,0.26771426
-0.51375705,0.8148607,0.33802173
-0.5105613,0.8755808,0.3902197
-0.5084307,0.7829028,0.4434829
-0.5148223,0.5485446,0.4850282
-0.5425192,0.26198846,0.49355033
-0.5542371,0.11604724,0.53083456
-0.52973604,0.14374413,0.60327256
-0.45729804,0.2044642,0.6512095
-0.3571632,0.2161821,0.68210214
-0.26022413,0.1533315,0.70447266
-0.19950405,-0.0043276367,0.7193864
-0.16541559,-0.20246682,0.725778
-0.15156716,-0.344147,0.6970158
-0.13026187,-0.41658497,0.6682537
-0.10043446,-0.44960818,0.64375263
-0.065280735,-0.4783703,0.61925155
-0.021604894,-0.51565456,0.5745104
0.023136212,-0.52843773,0.5148556
0.07426891,-0.5071325,0.46052712
0.11687948,-0.45706502,0.35826173
0.14777215,-0.37610492,0.22510369
0.16481638,-0.30899325,0.09727196
0.16801217,-0.33562487,-0.010319749
0.14777215,-0.47943556,-0.068909295
0.099835254,-0.6552042,-0.0507998
0.028462535,-0.7798401,0.029095035
-0.04717124,-0.7819707,0.13029516
-0.10682605,-0.5998105,0.19634154
-0.13026187,-0.2653174,0.20486367
-0.11960922,0.04360926,0.17290573
-0.08978182,0.15546203,0.098337226
-0.04291018,0.08302405,0.0035286883
0.015679361,-0.07783088,-0.082757734
0.07533417,-0.21418473,-0.13389042
0.1254016,-0.29514483,-0.1317599
0.15309848,-0.35479963,-0.10725881
0.14990267,-0.39208388,-0.079561934
0.1254016,-0.4038018,-0.06358297
0.100900516,-0.3793007,-0.060387176
0.067877315,-0.28023112,-0.083822995
0.02526674,-0.1193762,-0.11791146
-0.016278572,0.015912388,-0.1285641
-0.057823885,0.096872486,-0.15199992
-0.10256499,0.13735253,-0.1701094
-0.13558818,0.15226623,-0.16265257
-0.15156716,0.15226623,-0.15413044
-0.15156716,0.15546203,-0.1615873
-0.14517556,0.15439676,-0.16265257
-0.14091451,0.1980726,-0.14134727
-0.12067448,0.2673148,-0.10938934
-0.08658602,0.33336118,-0.0806272
-0.051432297,0.33762226,-0.07103982
-0.02267016,0.27051058,-0.09021458
-0.00136487,0.19700734,-0.12536831
0.018875154,0.22044316,-0.12536831
0.02739727,0.31844747,-0.110454604
0.026332006,0.34294856,-0.10938934
0.03165833,0.30779484,-0.112585135
0.049767822,0.26198846,-0.13602096
0.07533417,0.27051058,-0.176501
0.10303105,0.3482749,-0.24574319
0.15416373,0.4761066,-0.2606569
0.18399113,0.41006023,-0.2574611
0.2180796,0.16185361,-0.2638527
0.24684174,-0.020306604,-0.2723748
0.2542986,-0.07676562,-0.305398
0.27986494,-0.033089776,-0.24893898
0.32780182,0.13096094,-0.17543574
0.39065245,0.1682452,-0.0625177
0.4843957,0.026565032,0.045074
0.58559585,-0.15346466,0.042943474
0.6761433,-0.29194903,0.004593953
0.74325496,-0.5710483,-0.02949451
0.81249714,-0.7723833,-0.12962936
0.8977183,-0.7191201,-0.11897672
0.9722868,-0.69781476,-0.0507998
1.0340722,-0.7478822,-0.04014715
1.0905311,-0.83310336,-0.060387176
1.1576428,-0.84269077,-0.083822995
1.2407335,-0.8341686,-0.09021458
1.3323462,-0.8267118,-0.096606165
1.4314158,-0.8618655,-0.082757734
1.5283549,-0.97691405,-0.0326903
1.6263592,-1.1612048,0.042943474
1.7243634,-1.3444303,0.16544887
1.8244984,-1.4690663,0.32736906
1.9246333,-1.5233947,0.5063335
2.0119848,-1.5361779,0.6565358
2.0908144,-1.5553527,0.7034074
2.1557956,-1.6469654,0.6512095
2.1941452,-1.7588181,0.61285996
2.19308,-1.8823888,0.6501442
2.1600566,-2.0102205,0.725778
2.1110544,-2.064549,0.80993384
2.0705745,-2.0379174,0.87598026
2.048204,-1.9537616,0.91219926
2.0503345,-1.8237993,0.9047424
2.0737703,-1.7566876,0.88024133
2.097206,-1.7982329,0.85787076
2.1067934,-1.8578877,0.85787076
2.1110544,-1.9079552,0.88024133
2.1302292,-1.9686753,0.9058077
2.185623,-2.044309,0.91219926
2.258061,-2.1348565,0.9100687
2.3123894,-2.2222083,0.8972855
2.3155854,-2.2925155,0.89835083
2.2814968,-2.3447137,0.89622027
2.2399514,-2.402238,0.86000127
2.1962757,-2.5684192,0.8046075
2.1302292,-2.978546,0.72258216
2.020507,-3.3428664,0.58729357
1.8862838,-3.321561,0.49248505
1.7541909,-2.8794763,0.45413554
1.6380771,-2.26908,0.41685128
1.5262244,-1.7151423,0.3508049
1.4207631,-1.3774534,0.2730406
1.335542,-1.2219249,0.22403842
1.2780178,-1.254948,0.26771426
1.2694956,-1.3220598,0.3263038
1.3163673,-1.2901018,0.2964764
1.396262,-1.3614745,0.26877952
1.4601779,-1.5638747,0.28369322
1.5070496,-1.8419088,0.33695644
1.5347464,-2.06881,0.40300286
1.5624433,-2.0134163,0.41898182
1.552856,-1.8301909,0.39767653
1.4495252,-1.677858,0.34973964
1.2545819,-1.6064854,0.18036258
1.0425943,-1.4701315,-0.067844026
0.8593688,-1.2762533,-0.3000717
0.64844644,-1.1271163,-0.5333646
0.433263,-1.133508,-0.7634617
0.23938489,-1.1313775,-0.88809764
0.058289938,-1.056809,-0.90620714
-0.1142829,-0.9673267,-0.89981556
-0.21335249,-0.9854362,-0.8849018
-0.2580936,-1.1974238,-0.84974813
-0.29005152,-1.5223294,-0.83163863
-0.28365993,-1.730056,-0.79755014
-0.2250704,-1.628856,-0.69954586
-0.19630826,-1.4349778,-0.5216467
-0.21335249,-2.1028986,-0.43003392
-0.18245982,-2.6216824,-0.2095242
-0.108956575,-3.0520492,-0.0017976337
-0.013082779,-4.086421,-0.020972393
0.09450893,-4.260059,-0.26917902
0.23086278,-3.5346138,-0.41512024
0.2756039,-3.1947947,-0.3831623
0.30223548,-3.4749591,-0.18395784
0.29477865,-3.8957386,-0.06464823
0.28838706,-4.013983,-0.0028628982
0.38319558,-3.7125132,0.08448879
0.49185255,-3.382281,0.22084263
0.5174189,-3.2416663,0.21125525
0.3501724,-3.4749591,0.1558615
0.048702557,-4.0533977,0.007789746
-0.13665345,-3.9639156,-0.48755822
-0.28152943,-2.2552314,-0.2542653
-0.48179913,-0.08954879,-0.16265257
-0.5126918,1.1972907,-0.47370976
-0.5244097,1.8194051,-0.5876931
-0.6618288,2.1634855,-0.56106144
-0.9089702,2.4425848,-0.4332297
-1.0506504,3.1680298,-0.3352254
-0.8929912,3.2383373,-0.08808405
-0.62454456,1.9216704,0.038682416
-0.34651056,0.44947502,0.04720453
-0.07593338,-0.0096539585,-0.03908189
-0.00136487,0.300338,-0.0326903
-0.07167232,0.7765112,0.069575086
-0.081259705,1.0588063,0.029095035
-0.008821721,1.0098041,-0.16691361
0.0039614523,0.75094485,-0.26811373
-0.065280735,0.7562712,-0.2936801
-0.07167232,0.7200522,-0.23722108
-0.03225754,0.6753111,-0.2872885
-0.003495399,0.81379545,-0.38955387
-0.024800688,0.8169912,-0.32883382
-0.0844555,0.3802328,-0.33629066
-0.0695418,0.29181588,-0.46412238
-0.03012701,0.42816973,-0.3554654
-0.04291018,0.35040542,-0.19887155
-0.09297761,0.32270855,-0.2425474
-0.11747869,0.6774416,-0.18289259
-0.17500298,1.6425712,-0.09234511
-0.28259468,2.4127574,-0.022037657
-0.40403482,2.1507022,-0.056126118
-0.40829587,1.5030215,-0.19034944
-0.28579047,1.3602761,-0.2990064
-0.13452293,1.4838468,-0.26278743
0.0114183035,1.2058128,-0.15626098
0.16481638,0.54108775,-0.16797888
0.17227323,-0.04587295,-0.28835377
0.04657203,-0.3430817,-0.11897672
-0.08232497,-0.43043342,0.0749014
-0.11534816,-0.84162545,0.24534371
-0.08871655,-1.2666659,0.3710449
-0.052497562,-1.3540176,0.5745104
0.0114183035,-0.94815195,0.5798367
0.30862707,0.7541406,0.007789746
0.46095988,1.1972907,0.024833977
0.59624845,0.38875493,-0.0039281626
0.6069011,-0.8054065,-0.23828633
0.6047706,-1.3870409,-0.00818922
0.51102734,-1.1601396,0.06637929
0.38639137,-0.730838,0.082358256
0.1371195,-0.37503967,-0.043342948
-0.17819877,-0.1492036,-0.045473475
-0.34118423,-0.03415504,0.054661382
-0.3294663,0.36958018,-0.04014715
-0.22400513,0.31312117,-0.018841865
-0.07167232,0.20339893,-0.042277683
-0.062084943,0.52936983,-0.18715364
-0.2101567,0.8372313,-0.033755567
-0.32200947,0.99595565,-0.00818922
-0.25915885,1.2004864,-0.0625177
-0.14304504,1.0811768,0.080227725
-0.09510814,0.70620376,0.13881727
-0.14624083,0.65187526,0.16225308
-0.17074192,0.78929436,0.27091005
-0.21122196,0.85853654,0.29221535
-0.25383255,0.89475554,0.23895213
-0.22613567,0.8734503,0.2847585
-0.14943662,0.97145456,0.2006026
-0.13026187,1.2313792,0.17290573
-0.159024,1.4359099,0.19634154
-0.19204721,1.7320534,0.14201306
-0.20269984,1.8502977,0.13455622
-0.17074192,1.6159396,0.19421102
-0.16115454,1.4178004,0.08768458
-0.17926402,1.3336445,0.124968834
-0.16967665,1.3837119,0.17929731
-0.0993692,1.3709288,0.18462364
-0.015213308,1.2846423,0.15479624
0.030593064,1.1589411,0.09194563
0.06574679,0.80740386,0.11538146
0.12433633,0.3056643,0.123903565
0.19890484,-0.19287944,0.12816462
0.2926481,-0.4155197,0.2037984
0.376804,-0.4517387,0.22403842
0.39278296,-0.3409512,0.21977736
0.34271553,-0.16837835,0.32417327
0.34804186,0.3237738,0.41791654
0.26388597,0.6209826,0.48076716
0.22234066,0.48888978,0.4914198
0.22340593,0.3802328,0.3710449
0.15629427,0.4579971,0.3689144
0.02526674,0.5336309,0.45093974
-0.07060706,0.7402922,0.39874178
-0.14304504,1.0151304,0.3476091
-0.18778615,1.109939,0.30712906
-0.21441776,0.9746504,0.22936475
-0.26448518,0.7424227,0.16225308
-0.3688811,0.63376576,0.124968834
-0.5190834,0.707269,0.16544887
-0.6799383,1.0279136,0.18036258
-0.78753,1.3187308,0.20805946
-0.84505427,1.3858424,0.28901955
-0.9025786,1.3123392,0.33482593
-1.0016482,1.1983559,0.40087232
-1.1454588,1.1376358,0.49887666
-1.3212276,1.2154001,0.53722614
-1.5087141,1.3932993,0.5500093
-1.7015269,1.6020911,0.5777062
-1.8772955,1.7970345,0.5787715
-2.0211062,1.9142135,0.5617272
-2.1414812,1.9589547,0.53722614
-2.245877,1.9088873,0.49994192
-2.3364246,1.7863818,0.44241762
-2.4131236,1.6745291,0.3678491
-2.471713,1.6436365,0.28369322
-2.5260415,1.6894428,0.1888847
-2.5611954,1.8140787,0.08874984
-2.5793047,2.0015652,-0.035886094
-2.5899575,2.217814,-0.18502311
-2.5793047,2.4319322,-0.30326748
-2.5388248,2.564025,-0.38742337
-2.4653215,2.5938523,-0.454535
-2.3641214,2.5501764,-0.48755822
-2.2384202,2.4489763,-0.49821085
-2.0999358,2.3200793,-0.48755822
-1.9699736,2.2039654,-0.4460129
-1.8549249,2.068677,-0.38529283
-1.7430722,1.912083,-0.3139201
-1.6280236,1.7608155,-0.2638527
-1.5300193,1.7309881,-0.22869895
-1.452255,1.7789251,-0.18395784
-1.4011223,1.8641461,-0.114715666
-1.3723602,1.9227357,-0.009254484
-1.3595771,1.9419105,0.082358256
-1.3680991,1.9823905,0.14946991
-1.3915349,1.9930432,0.13349095
-1.4192318,2.029262,0.031225564
-1.416036,2.109157,-0.10832407
-1.3638381,2.1922476,-0.28941903
-1.2807474,2.1997044,-0.490754
-1.194461,2.1347234,-0.66332686
-1.1209577,2.0260663,-0.7783754
-1.0602378,1.8811904,-0.8422913
-1.0112356,1.7054218,-0.8667923
-0.9739513,1.5317837,-0.84761757
-0.9387976,1.3954298,-0.8060723
-0.9047091,1.3325793,-0.7634617
-0.85144585,1.3464277,-0.7240469
-0.7790079,1.3847772,-0.68782794
-0.6991131,1.387973,-0.6643921
-0.6234793,1.3379055,-0.6377605
-0.55956346,1.2249875,-0.603672
-0.5084307,1.0406967,-0.567453
-0.47540754,0.79568595,-0.531234
-0.46582016,0.52936983,-0.49608034
-0.48606017,0.2822285,-0.46838346
-0.5712813,0.078762986,-0.41725075
-0.72574466,-0.05546033,-0.28302744
-0.9132312,-0.09274458,-0.1285641
-1.106044,-0.029893983,-0.052930325
-1.2328105,0.096872486,-0.010319749
-1.2754211,0.19913787,0.0035286883
-1.2551811,0.20020314,-0.042277683
-1.2040484,0.10432933,-0.13389042
-1.1667641,0.063849285,-0.19993682
-1.1337409,-0.054395065,-0.17117468
-1.0879346,-0.24720792,-0.16052203
-1.033606,-0.3228417,-0.14773886
-0.97821236,-0.14068149,-0.10406302
-0.916427,0.12776515,-0.0507998
-0.8535764,0.32910013,-0.009254484
-0.78646475,0.35892755,0.0024634239
-0.71402675,0.28862008,0.0013981595
-0.6458498,0.18422417,-0.0017976337
-0.5915214,0.09793775,0.013116068
-0.5542371,0.063849285,0.022703448
-0.5329318,0.121373564,0.015246597
-0.5190834,0.23003054,0.007789746
-0.49990863,0.320578,-0.009254484
-0.4700812,0.3631886,-0.041212417
-0.42534012,0.34401384,-0.049734533
-0.36035898,0.26198846,-0.03695136
-0.28579047,0.14161359,-0.025233451
-0.21122196,0.053196643,-0.004993427
-0.13984925,0.005259743,0.016311862
-0.07380285,-0.005392901,0.02589924
-0.008821721,-0.0064581656,0.02802977
0.058289938,-0.03202451,0.033356093
0.12007528,-0.083157204,0.03761715
0.1733385,-0.12683305,0.054661382
0.22021013,-0.1641173,0.067444555
0.26495123,-0.20033629,0.0780972
0.3075618,-0.25679532,0.08661931
0.34484607,-0.33029854,0.08448879
0.3714777,-0.38995335,0.08661931
0.37893453,-0.41445443,0.08874984
0.3736082,-0.40806285,0.080227725
0.356564,-0.39314917,0.065314025
0.32993236,-0.36864808,0.06637929
0.30117023,-0.32497224,0.082358256
0.2777344,-0.2695785,0.10046775
0.26388597,-0.21418473,0.11538146
0.25855964,-0.17263941,0.11538146
0.2574944,-0.14707308,0.108989865
0.2713428,-0.14387728,0.10046775
0.2958439,-0.17476994,0.0930109
0.32354078,-0.21311946,0.09727196
0.3533682,-0.23442475,0.095141426
0.3885219,-0.22483738,0.08768458
0.42367563,-0.19927102,0.07596667
0.45563358,-0.18648785,0.062118232
0.5003747,-0.19607523,0.038682416
0.5589642,-0.23229423,0.009920275
0.63246745,-0.31005853,-0.023102922
0.71662337,-0.43895552,-0.068909295
0.79971397,-0.60513675,-0.12217251
0.8593688,-0.7638612,-0.14560834
0.8774783,-0.88956237,-0.12962936
0.83380246,-0.92365086,-0.10832407
0.7389939,-0.85547394,-0.082757734
0.62394536,-0.7084674,-0.048669267
0.51315784,-0.51565456,-0.0017976337
0.41515353,-0.36332175,0.050400324
0.34165028,-0.2812964,0.0780972
0.28625652,-0.26425216,0.11005513
0.24790701,-0.3260375,0.15479624
0.22766699,-0.49115348,0.19314575
0.22447118,-0.7553391,0.18462364
0.2511028,-1.0717226,0.1260341
0.2745386,-1.395563,0.111120395
0.2692123,-1.6917065,0.11538146
0.24364595,-1.92713,0.0749014
0.20210063,-1.9526963,0.016311862
0.14244583,-1.6341822,-0.09127984
0.06574679,-1.0823753,-0.21698105
-0.0695418,-0.59874517,-0.22976422
-0.23785357,-0.3675828,-0.2638527
-0.39444745,-0.33669013,-0.32457274
-0.49990863,-0.37503967,-0.32883382
-0.57660764,-0.49434927,-0.30965906
-0.66928566,-0.6275073,-0.305398
-0.7640942,-0.5923536,-0.2755706
-0.7896606,-0.38356176,-0.20419787
-0.75024575,-0.09913617,-0.14986938
-0.7012436,0.14693992,-0.0955409
-0.63093615,0.30992538,-0.02736398
-0.5126918,0.31738222,-0.011385013
-0.3837948,0.15972309,-0.010319749
-0.28152943,-0.0096539585,-0.017776601
-0.1803293,-0.01711081,-0.083822995
-0.04930177,0.11391672,-0.11791146
0.07107311,0.25027058,-0.10299776
0.17440376,0.1831589,-0.08914932
0.24364595,-0.022437133,-0.096606165
0.26175544,0.22790001,-0.20206735
0.2574944,0.7370964,-0.1583915
0.18718693,1.4412361,-0.049734533
0.100900516,2.1400497,-0.0507998
0.08066049,2.5235448,-0.011385013
0.028462535,2.4543025,-0.013515542
-0.064215474,2.0537632,-0.110454604
-0.057823885,1.629788,-0.06358297
0.024201477,1.2154001,0.033356093
0.07426891,0.9565409,-0.011385013
0.0923784,0.8691892,0.08342352
0.12433633,0.6817027,0.13242568
0.1669469,0.31312117,0.069575086
0.19038273,-0.0682435,0.062118232
0.20103537,-0.33455962,0.04933506
0.19038273,-0.47623977,0.02057292
0.17759955,-0.5231114,-0.0060586915
0.1669469,-0.509263,-0.052930325
0.1584248,-0.5358946,-0.085953526
0.13925004,-0.6360294,-0.1136504
0.10409631,-0.76705694,-0.13495569
0.06574679,-0.8224507,-0.14986938
0.01994042,-0.787297,-0.1615873
-0.03971439,-0.751078,-0.18502311
-0.11641343,-0.76492643,-0.23082949
-0.1984388,-0.77664435,-0.26811373
-0.2431799,-0.8181897,-0.2840927
-0.25383255,-0.94176036,-0.30113694
-0.23891884,-1.1303121,-0.2958106
-0.20376511,-1.327386,-0.2958106
-0.16754612,-1.5074158,-0.3022022
-0.11747869,-1.6107464,-0.32989907
-0.063150205,-1.5979632,-0.36292228
-0.04930177,-1.4786536,-0.34374753
-0.08658602,-1.291167,-0.31498536
-0.13878398,-1.1207248,-0.3597265
-0.17606823,-0.94708663,-0.3746402
-0.20056932,-0.7936886,-0.341617
-0.21654828,-0.6562695,-0.2872885
-0.2548978,-0.5689178,-0.18289259
-0.2932473,-0.5390904,-0.081692465
-0.2943126,-0.40912813,0.042943474
-0.2975084,-0.179031,0.16970994
-0.36462003,0.031891353,0.27517113
-0.47221175,0.19913787,0.34547856
-0.5904561,0.29075062,0.34228277
-0.7161573,0.3237738,0.3476091
-0.8929912,0.20979051,0.40193757
-0.99845237,0.4761066,0.2911501
-0.453037,0.44947502,0.12070777
0.55150735,-1.0099373,-0.17117468
1.1597733,-1.7183381,-0.5557351
1.3291504,-1.693837,-0.33309487
1.3738915,-1.399824,-0.11791146
1.3110409,-1.5319169,0.081292994
0.88280463,-1.4584136,0.023768712
0.06468152,-1.3327124,-0.11791146
-0.8620985,-0.9034108,-0.25000423
-1.730289,0.045739792,-0.049734533
-2.2533338,0.66998476,0.082358256
-2.19794,-0.0032623722,0.22510369
-1.6930047,-0.5614609,0.4850282
-0.9856692,0.23216106,0.25386584
-0.13239239,0.7360311,0.34654385
0.6761433,0.44947502,0.15479624
1.4196979,0.5560014,-0.07103982
1.948069,1.1163305,0.0930109
1.9693743,0.7520101,0.13029516
1.0234195,-0.5028714,0.09088037
-0.48499492,-1.2453607,-0.1914147
-1.6919395,0.62524366,-0.12430304
-2.2725086,1.5456321,0.23895213
-2.5558689,0.75946695,0.3124554
-2.3289676,0.2460095,0.38489336
-1.194461,-0.23975107,0.6107294
0.03165833,-0.32816803,0.36039227
1.0734869,0.10326407,0.14201306
1.9161111,0.22470422,0.11538146
2.3741748,-0.29407957,0.25280055
2.1217072,-1.0589395,0.10366354
1.0276805,-1.178249,-0.20526314
-0.5734119,-0.6722484,-0.12004199
-1.931624,0.5357614,0.21125525
-2.6038058,0.5240435,0.32736906
-2.9809096,0.078762986,0.488224
-2.7028754,-0.07356983,0.85787076
-1.5662383,-0.714859,0.8301739
-0.18352509,-0.67757475,0.49887666
1.1906661,-0.07889615,0.05892244
2.3081284,0.5847636,-0.09021458
2.7715185,0.6572016,-0.04653874
2.133425,-0.565722,-0.17437047
0.18931746,-1.3518871,-0.510994
-1.9294934,0.37171072,-0.052930325
-2.9276462,1.4401709,0.13455622
-3.2259202,0.58902466,0.22616896
-2.592088,0.23855266,0.49887666
-1.2743559,-0.026698189,0.7151253
0.35123765,0.3269696,0.61285996
1.9256985,1.0854379,0.2847585
3.0623357,1.1237874,0.14733939
3.329717,0.44627923,0.22723421
2.1067934,-1.9473699,-0.26704848
-0.3475758,-1.6799886,-0.46944872
-2.1510684,0.83403546,-0.20206735
-2.6613302,0.53256565,-0.16904415
-2.475974,0.09900301,0.46265766
-1.0218881,0.6327005,1.3116734
0.60264003,0.9022124,1.3361745
1.9427427,0.7967512,0.6448179
2.9888325,0.06917561,0.16012256
3.0729883,-1.6842496,-0.34268224
1.8980016,-3.143662,-0.8849018
-0.30389997,-1.173988,-0.7996807
-2.254399,0.87877655,-0.6622616
-3.107676,0.9203219,-0.7943544
-3.0821097,-0.26744795,-1.1437612
-2.7103324,0.13309148,-1.4750583
-2.1904833,1.7757292,-1.3898371
-1.6525247,1.7661419,-1.2683971
-1.1699599,0.68489844,-1.2662665
-0.80457425,0.06171876,-1.1064769
-0.5893908,-0.102331966,-0.7581354
-0.4796686,0.3994076,-0.34481278
-0.40936115,1.1205916,-0.013515542
-0.3358579,1.4731941,0.22829948
-0.24531043,1.279316,0.37317544
-0.19630826,0.9181914,0.43069974
-0.16115454,0.7743807,0.47544083
-0.14304504,0.8532102,0.52018195
-0.16861139,0.9224524,0.5276388
-0.20483038,0.8084691,0.46904925
-0.25702834,0.6188521,0.38276282
-0.33159685,0.52297825,0.26025742
-0.41149166,0.63802683,0.13881727
-0.44558012,0.72324795,0.10366354
-0.42107907,0.6060689,0.13455622
-0.40723062,0.28116322,0.2006026
-0.33372736,0.058522966,0.2847585
-0.07593338,-0.023502396,0.3145859
0.28838706,-0.2120542,0.21551631
0.7304718,-0.30899325,0.040812943
1.4356768,-0.43575972,-0.10619355
2.321977,-0.79688436,-0.09447564
2.7427564,-0.6647916,0.10366354
2.2751052,-0.26744795,0.3870239
0.6196843,-1.0791794,0.36039227
-1.3744907,-1.7236644,0.24321319
-2.3641214,-1.9505657,0.51379037
-2.644286,-1.9367173,0.70873374
-1.766508,-1.6799886,0.746018
0.20849222,-0.93217295,0.91219926
2.2271683,-0.33242908,0.6522747
3.7153428,-0.64135575,0.41259024
4.5068345,-1.4562831,0.13881727
3.7281258,-1.5532221,0.123903565
1.299323,-1.2645354,0.32843435
-1.4543855,-0.008588694,0.06637929
-3.0948927,-0.058656123,-0.32563803
-3.6019588,-0.8650613,-0.23828633
-2.833903,-0.23335949,0.02589924
-0.64265406,1.057741,0.15373097
1.7797573,1.645767,0.13881727
3.58325,0.23535685,-0.08488826
4.2746067,-2.2967768,-0.57917094
3.2178643,-2.5833328,-0.6548047
0.95311207,-1.890911,-0.08808405
-1.2775517,-0.025632925,0.1228383
-2.3002055,0.5719804,0.11431619
-2.2426813,-0.13535516,0.28582376
-1.7963355,0.26624954,0.32204276
-0.7939216,0.7743807,0.26558372
0.48546097,1.8449714,0.33056486
1.4527211,2.8282106,-0.14454307
1.8852184,3.1105056,0.007789746
1.7659088,2.7110314,0.5073988
1.2258197,1.8289925,0.4466787
0.5547032,1.851363,0.33908698
-0.07380285,2.8399284,0.32843435
-0.5968477,3.8391464,-0.025233451
-0.9345365,4.3099933,-0.28622323
-1.0868694,4.2343597,-0.44068658
-0.92388386,4.533699,-0.9317735
-0.5712813,5.622399,-1.1778495
-0.29218206,6.5385265,-0.9679925
-0.2463757,6.5332003,-0.57917094
-0.36994636,5.6277256,-0.24041687
-0.47753808,4.0703087,-0.10832407
-0.5638245,2.814362,0.062118232
-0.54145396,2.1027653,0.56705356
-0.3209442,1.2537496,1.0133994
0.07320364,-0.102331966,0.7151253
0.3917177,-1.0557436,0.22403842
0.3714777,-1.2592092,0.11005513
0.23938489,-0.9247161,-0.18289259
-0.040779654,0.25559688,-0.35440016
-0.26341993,0.96719354,-0.16265257
-0.36462003,0.80527335,0.113250926
-0.28685573,0.46864977,0.081292994
-0.03545333,-0.18542258,0.123903565
0.3523029,-0.9098024,0.07596667
0.7262107,-1.3039502,0.07277088
0.8412593,-1.5510916,0.23682159
0.60796636,-2.1689448,0.22936475
0.65057695,-4.1886864,-0.16052203
0.9872005,-5.8611517,-0.27983165
1.2684304,-6.9551783,0.24001738
1.5443338,-8.179167,0.5787715
1.782953,-8.911003,0.64162207
1.8202373,-7.7189727,0.4733103
1.5858791,-5.3849783,0.45626608
1.2577777,-3.191599,0.5478788
0.9456552,-1.9026289,0.5276388
0.7038402,-0.9279119,0.32843435
0.42900196,-0.07996141,-0.07530088
0.19464378,0.7520101,-0.20206735
0.085986815,1.2420317,-0.07210509
-0.0024301345,0.91073453,-0.25533056
-0.41894853,0.15972309,-0.34268224
-1.0506504,-0.2301637,-0.19887155
-1.343598,-0.095940374,0.062118232
-1.1891347,-0.51565456,0.44454816
-0.86103326,-1.1558784,0.038682416
0.057224672,-0.36864808,-0.4428171
1.0511163,-0.25040373,-0.14773886
1.6604476,-0.79688436,-0.21698105
1.9821575,-1.2730576,-0.14773886
2.0716398,-1.3444303,0.18568891
1.5997275,-0.87784445,0.1558615
0.546181,-0.12257199,0.24321319
-0.7087005,-0.10339723,0.2762364
-1.7452028,-0.15133412,0.07596667
-2.331098,-0.34201646,0.17610152
-2.544151,-0.585962,0.4072639
-2.024302,-0.791558,0.54468304
-0.67567724,-1.2038153,0.40513337
0.73473287,-1.254948,-0.081692465
1.7360814,-0.85121286,-0.48436242
2.3613915,-0.1758352,-0.48542768
2.2761705,0.35573173,-0.24680845
1.1757523,-0.042677157,-0.24361266
-0.43279696,-0.17476994,-0.37250966
-1.5864784,0.17357153,-0.25000423
-2.1510684,0.5155214,0.06424876
-2.250138,0.6263089,0.20166788
-1.601392,0.46651924,0.31032485
-0.3390537,-0.13642043,0.1228383
0.8114319,-0.21631525,-0.25959164
1.5294201,0.05532717,-0.35120437
1.9874839,0.40686443,-0.14560834
2.1792314,0.58902466,0.031225564
1.8127805,-0.03202451,-0.007123956
0.72940654,-1.2538828,-0.36718333
-0.783269,-0.79475385,-0.583432
-1.8069881,1.2154001,-0.21485052
-2.1990054,1.8971694,0.29221535
-2.285292,1.3123392,0.42750394
-1.9710388,0.5634583,0.5702494
-1.4661034,0.048935585,0.69382006
-0.7640942,0.009520801,0.5723799
0.16162059,0.51445615,0.33695644
0.89878356,1.0630673,0.14733939
1.2002534,0.743488,0.030160299
1.226885,0.40579918,-0.010319749
0.9584384,0.79781646,0.050400324
0.376804,1.3837119,0.09194563
-0.34118423,1.5424364,0.050400324
-0.9707555,1.3453624,0.0024634239
-1.3926002,1.0833074,0.02802977
-1.4511898,1.0609368,-7.323693E-4
-1.138002,1.0833074,-0.022037657
-0.8056395,0.87984186,-0.18289259
-0.42320958,0.45160553,-0.3235075
-0.050367035,-0.17050889,-0.38848862
0.19464378,-0.38675755,-0.40872866
0.40130508,-0.04587295,-0.38529283
0.61222744,0.52617407,-0.35226962
0.7421897,0.66678894,-0.25959164
0.7485813,0.13309148,-0.10938934
0.67507803,-0.5550693,-0.07210509
0.60796636,-1.2922323,-0.047604006
0.59624845,-1.5841148,-0.08914932
0.6814696,-1.1675963,-0.140282
0.8369982,-0.6179199,-0.09447564
0.9222194,-0.3494733,-0.018841865
0.908371,-0.39527968,0.010985539
0.89878356,-0.6402905,-0.016711336
0.9307415,-0.69781476,-0.15626098
0.912632,-0.5902231,-0.13282515
0.7102318,-0.112984605,0.039747678
0.42367563,0.34614435,0.17929731
0.12007528,1.0066082,0.2187121
-0.07273759,1.6851817,0.11751198
-0.25063676,1.4337794,0.26558372
-0.50736547,0.7456185,0.16544887
-0.60430455,0.3248391,-0.055060856
-0.3752727,-0.42084602,0.08981511
-0.07593338,-0.86080027,0.11751198
-0.0141480435,-0.6466821,-0.10512828
-0.031192275,-0.38143125,-0.11578093
-0.08765129,-0.10446249,-0.10406302
-0.16008927,-0.115115136,-0.19034944
-0.13132714,-0.45493448,-0.3767707
-0.1142829,-0.6914232,-0.6015415
-0.21548302,-0.8384297,-0.5578657
-0.33692315,-0.82458127,-0.3746402
-0.4466454,-0.7617307,-0.21591578
-0.38166428,-1.0685267,-0.18502311
-0.23572305,-0.80647177,-0.2574611
-0.159024,0.27796742,-0.29474536
-0.251702,0.96080196,0.040812943
-0.49032125,0.98423773,0.21551631
-0.6884604,0.89049447,0.18994996
-0.66928566,0.9192566,0.21551631
-0.42320958,0.9948904,0.21445104
-0.10576078,1.0247178,0.123903565
0.14990267,0.928844,-0.0625177
0.36295557,0.66678894,-0.031625036
0.5845306,0.005259743,0.1079246
0.7560381,-0.38462704,0.051465586
0.85830355,-0.0064581656,0.081292994
0.8732172,0.32910013,0.26877952
0.7443202,0.54747933,0.2847585
0.5845306,0.8713197,0.2336258
0.40450087,1.2920991,0.10685934
0.13818477,1.4146045,-0.04440821
-0.08871655,1.5435016,-0.020972393
-0.195243,1.521131,-0.12430304
-0.22400513,1.2079433,-0.12536831
-0.26235464,0.70513844,-0.1701094
-0.31987894,0.20552945,-0.3565307
-0.27194205,0.21724737,-0.44707817
-0.24744095,0.54747933,-0.46731818
-0.29857364,0.5879594,-0.37250966
-0.3720769,0.3844939,-0.3682486
-0.39125165,0.356797,-0.40766338
-0.3177484,0.5900899,-0.34481278
-0.24957149,0.9075387,-0.20419787
-0.19630826,1.0428272,-0.028429244
-0.1622198,0.94908404,0.094076164
-0.16008927,0.6731805,0.26451847
-0.18352509,0.31951275,0.49355033
-0.24424516,-0.020306604,0.7311043
-0.32520527,-0.49328402,0.9601361
-0.4285359,-1.10155,1.040031
-0.5222792,-1.3401692,0.9803762
-0.60856557,-0.77451384,0.95054877
-0.6810036,0.07663246,1.0208563
-0.7332015,0.69022477,1.0070078
-0.7758121,0.90647346,0.89835083
-0.80777,0.8510797,0.8120644
-0.80777,0.6998122,0.7332348
-0.77048576,0.57730675,0.6469484
-0.70337415,0.48675928,0.58303255
-0.6032393,0.44521394,0.52870405
-0.47860333,0.3994076,0.45946187
-0.3742074,0.41006023,0.42963445
-0.2964431,0.4345613,0.42963445
-0.21548302,0.36425385,0.4285692
-0.11321764,0.19594207,0.37317544
-0.015213308,0.065979816,0.26771426
0.062551,0.016977651,0.1888847
0.12114054,0.008455536,0.15692677
0.15416373,0.01910818,0.16012256
0.17120796,0.0020639498,0.16864468
0.20103537,0.11285145,0.12709936
0.21914487,0.3482749,0.065314025
0.21168801,0.4942161,0.08661931
0.18612167,0.49208558,0.10685934
0.14990267,0.39088547,0.12709936
0.11581422,0.28009796,0.19101523
0.0923784,0.22470422,0.266649
0.07320364,0.25985795,0.35506594
0.062551,0.32803488,0.452005
0.06361626,0.37597176,0.52231246
0.07320364,0.3663844,0.55533564
0.09450893,0.33336118,0.55640095
0.1285974,0.300338,0.5073988
0.16162059,0.2758369,0.44241762
0.19677432,0.24387898,0.38808915
0.22660172,0.17996311,0.34334803
0.2511028,0.11391672,0.31884697
0.26814702,0.10113354,0.31991223
0.27986494,0.1533315,0.33695644
0.29051757,0.24174845,0.3657186
0.29158285,0.3269696,0.3923502
0.28732178,0.37597176,0.4104597
0.29051757,0.37171072,0.42430815
0.29690918,0.3248391,0.431765
0.30010498,0.25666216,0.43389553
0.2990397,0.19700734,0.4253734
0.29158285,0.16185361,0.4072639
0.2809302,0.16291888,0.39341548
0.26495123,0.1948768,0.3902197
0.24897227,0.25133583,0.39128494
0.23192804,0.33975276,0.39128494
0.22127539,0.4196476,0.39341548
0.22340593,0.4622582,0.38276282
0.22873224,0.43562657,0.3625228
0.23405857,0.34934014,0.34121752
0.23938489,0.24387898,0.30499852
0.25003752,0.15865782,0.26238793
0.26069018,0.12456936,0.22403842
0.26814702,0.12563463,0.20273313
0.26282072,0.12563463,0.19527629
0.24364595,0.10645986,0.2006026
0.21914487,0.079828255,0.20166788
0.19038273,0.05532717,0.18675417
0.15735953,0.041478734,0.15373097
0.11901001,0.028695561,0.11005513
0.08066049,0.012716594,0.063183494
0.04231097,9.986854E-4,0.026964506
0.0039614523,0.013781859,0.0067244815
-0.03225754,0.05000085,3.3289514E-4
-0.065280735,0.079828255,-0.0017976337
-0.10363025,0.092611425,-0.023102922
-0.1473061,0.090480894,-0.045473475
-0.19098194,0.08515458,-0.066778764
-0.23252726,0.093676694,-0.08808405
-0.26874623,0.108590394,-0.10512828
-0.29537785,0.14693992,-0.110454604
-0.30816102,0.21511683,-0.10299776
-0.30496523,0.28009796,-0.09021458
-0.28365993,0.27264112,-0.10938934
-0.2431799,0.15865782,-0.16797888
-0.18991667,-0.043742422,-0.25639585
-0.12706608,-0.26744795,-0.34055173
-0.06847653,-0.4666524,-0.38529283
-0.02799648,-0.6264421,-0.39274967
7.656588E-4,-0.6882274,-0.3916844
0.023136212,-0.65094316,-0.38422757
0.028462535,-0.62324625,-0.3767707
0.009287775,-0.61685467,-0.39594546
-0.036518596,-0.6104631,-0.41085917
-0.10043446,-0.58063567,-0.40553287
-0.16967665,-0.4783703,-0.39701074
-0.23572305,-0.27810058,-0.3714444
-0.28365993,-0.04906874,-0.305398
-0.31348735,0.121373564,-0.24680845
-0.33479264,0.17357153,-0.2063284
-0.3326621,0.13096094,-0.18395784
-0.30496523,0.06171876,-0.18928418
-0.26661572,-6.657903E-5,-0.18076205
-0.23359251,-0.061851915,-0.1434778
-0.2101567,-0.115115136,-0.10512828
-0.18778615,-0.15133412,-0.079561934
-0.15476295,-0.1492036,-0.06145244
-0.11854396,-0.12896357,-0.038016625
-0.094042875,-0.10978881,-0.010319749
-0.07593338,-0.10872355,0.022703448
-0.064215474,-0.12470252,0.055726644
-0.061019678,-0.15239939,0.095141426
-0.062084943,-0.179031,0.12816462
-0.07273759,-0.18542258,0.14201306
-0.08978182,-0.15666045,0.14307833
-0.110021845,-0.12257199,0.14307833
-0.13452293,-0.07889615,0.13988253
-0.15795875,-0.039481364,0.13562147
-0.17393771,-0.0043276367,0.13668674
-0.1803293,0.012716594,0.13455622
-0.17819877,0.009520801,0.12709936
-0.16328506,-0.010719223,0.10685934
-0.13665345,-0.037350833,0.07064035
-0.09723867,-0.07463509,0.021638183
-0.051432297,-0.12257199,-0.030559773
-0.01095225,-0.18861838,-0.07636614
0.022070948,-0.26744795,-0.11578093
0.0444415,-0.3430817,-0.13921675
0.047637295,-0.39634496,-0.14773886
0.03272359,-0.400606,-0.12643357
-2.9960563E-4,-0.32177645,-0.07530088
-0.04184492,-0.1673131,-0.023102922
-0.081259705,0.007390272,0.026964506
-0.108956575,0.13628727,0.054661382
-0.11854396,0.19913787,0.04720453
-0.124935545,0.18741997,0.026964506
-0.13132714,0.13096094,0.012050804
-0.13026187,0.08302405,0.0024634239
-0.124935545,0.07024087,0.0035286883
-0.1142829,0.077697724,0.015246597
-0.09723867,0.08408931,0.021638183
-0.08765129,0.08408931,0.02589924
-0.08552076,0.077697724,0.024833977
-0.08552076,0.0723714,0.014181333
-0.0844555,0.07343667,0.009920275
-0.08232497,0.08621984,-7.323693E-4
-0.079129174,0.10113354,-0.020972393
-0.078063905,0.1053946,-0.03908189
-0.07699864,0.09580722,-0.057191383
-0.067411266,0.06917561,-0.08808405
-0.04930177,0.027630296,-0.1285641
-0.024800688,-0.02456766,-0.17543574
-0.0024301345,-0.08848353,-0.22017685
0.010353039,-0.15346466,-0.2638527
0.018875154,-0.21738052,-0.31178957
0.022070948,-0.287688,-0.361857
0.01994042,-0.364387,-0.4012718
0.00822251,-0.4240418,-0.42896867
-0.0141480435,-0.43256393,-0.4492087
-0.04504071,-0.40806285,-0.454535
-0.0844555,-0.37184387,-0.4374908
-0.1260008,-0.33988592,-0.39701074
-0.15156716,-0.32071117,-0.33948645
-0.14517556,-0.33455962,-0.2840927
-0.12706608,-0.39527968,-0.2393516
-0.11960922,-0.46558714,-0.19461049
-0.11641343,-0.48369664,-0.15093465
-0.08765129,-0.47517452,-0.10193249
0.035919383,-0.45706502,-0.048669267
0.2063617,-0.48263136,-0.012450278
0.3704124,-0.65307367,-0.035886094
0.52274525,-0.9843709,-0.10086723
0.6164885,-1.3518871,-0.12962936
0.66868645,-1.653357,-0.16265257
0.7890613,-2.0091553,-0.20206735
0.94139415,-2.3713453,-0.2808969
0.9903963,-2.4618926,-0.4374908
0.9626994,-2.2605577,-0.603672
0.912632,-1.8536267,-0.7155248
0.8252803,-1.2996892,-0.7336343
0.6612296,-0.7990149,-0.7293732
0.4758736,-0.41658497,-0.7112637
0.32034498,-0.30260167,-0.63349944
0.20742697,-0.4485429,-0.5536046
0.112618424,-0.6765095,-0.44707817
0.03698465,-0.8096675,-0.33096436
-0.048236504,-0.9460214,-0.24574319
-0.16435033,-0.8916929,-0.18395784
-0.28152943,-0.714859,-0.140282
-0.36355478,-0.6136589,-0.08914932
-0.3987085,-0.20779315,-0.043342948
-0.44344962,0.61991733,0.02802977
-0.49671283,0.8872987,0.0930109
-0.52973604,0.96080196,0.040812943
-0.5148223,1.1877033,-0.04653874
-0.48925596,1.2324444,-0.00818922
-0.44344962,1.1365706,-0.034820832
-0.32200947,0.95121455,-0.22550316
-0.09723867,0.34294856,-0.25106952
0.14990267,-0.17157415,-0.27663586
0.31927973,-0.010719223,-0.3916844
0.413023,0.43030024,-0.31924644
0.40237033,0.8468186,-0.2276337
0.32780182,0.9725198,-0.14880413
0.23512383,0.93097454,-0.08488826
0.16481638,0.9075387,0.010985539
0.11581422,0.80740386,0.18781944
0.057224672,0.687029,0.3444133
-0.0045606634,0.66678894,0.45626608
-0.048236504,0.6689195,0.56705356
-0.051432297,0.56771934,0.63096946
-0.02799648,0.39514652,0.62138206
0.0018309233,0.15013571,0.60540307
0.023136212,-0.09061406,0.6149905
0.028462535,-0.20246682,0.63096946
0.023136212,-0.24614266,0.62564313
0.016744625,-0.25679532,0.5787715
7.656588E-4,-0.27064374,0.50846404
-0.018409101,-0.2695785,0.43283024
-0.04184492,-0.26425216,0.37637123
-0.062084943,-0.24720792,0.31565118
-0.07699864,-0.22590263,0.24534371
-0.091912344,-0.23655528,0.1888847
-0.107891314,-0.3047322,0.13775201
-0.12173975,-0.5007409,0.057857174
-0.13984925,-0.7361643,-0.031625036
-0.17926402,-0.9982194,-0.12536831
-0.23359251,-1.049352,-0.34800857
-0.2911168,-0.8224507,-0.59301937
-0.40510008,-0.5912883,-0.78263646
-0.6277404,-0.51352406,-0.9946241
-0.8897954,-0.40167126,-1.1608053
-1.113501,-0.15985624,-1.2108728
-1.2498548,0.13415673,-1.2183297
-1.2392021,0.065979816,-1.191698
-1.1305451,-0.21951105,-1.1405653
-0.9632986,-0.3409512,-1.0457568
-0.73959315,-0.2088584,-0.8912934
-0.50523496,0.034021884,-0.6303036
-0.28579047,0.36212334,-0.38529283
-0.10256499,0.46545398,0.007789746
-0.31029156,0.16185361,0.43922183
-0.9430586,-0.18542258,0.48289767
-1.452255,-0.3675828,0.25599635
-1.4991267,0.24920529,0.1441436
-1.6823522,0.2012684,0.27836692
-2.0871527,-0.3974102,0.25386584
-1.8250976,-0.27916586,0.3326954
-0.5776729,-0.6275073,0.5073988
0.5834653,-1.3220598,0.18036258
1.2364724,-1.286906,-0.10406302
2.0109196,-0.5529388,0.38276282
2.4977455,0.1053946,0.70873374
2.0258334,-0.2749048,0.8344349
0.34484607,-1.9058247,0.18142785
-1.5822173,-1.1601396,-0.20206735
-2.6389596,-0.400606,-0.18715364
-3.1353729,-0.18861838,-0.13708621
-3.014998,-0.49008822,0.12816462
-1.6141752,-0.14813833,0.35613123
0.35762924,0.27370638,0.761997
1.6572518,0.7466838,0.48609346
2.418916,0.8691892,0.82804334
2.7512784,0.30779484,0.87811077
2.024768,0.0031292143,0.8717192
-0.079129174,-0.8810403,0.3113901
-2.0903485,-0.11191934,-0.3384212
-2.7998145,-0.38356176,-0.55466986
-3.055478,-0.8970192,-0.619651
-3.027781,-0.3111238,-0.46731818
-1.750529,0.4196476,0.061052967
0.42687142,0.9192566,0.7236474
2.1664484,0.34294856,0.4253734
3.1230557,-0.83736444,0.49994192
3.4490266,-1.9633489,-0.067844026
2.789628,-1.6139421,-0.03908189
0.64205486,-1.3391039,-0.28302744
-1.7814218,0.42923498,-0.7315038
-2.9436252,0.0041944785,-0.6345647
-3.2333772,-0.79475385,-0.5205814
-2.926581,-0.28236166,-0.24041687
-1.3904697,1.1024821,0.15053518
0.6921223,1.7363144,0.7215169
2.242082,0.8670587,0.30499852
3.2263863,-0.47943556,0.31671643
3.4053507,-1.3305819,-0.23082949
2.4348948,-0.99289304,0.029095035
-0.09510814,-0.86080027,-0.23828633
-2.3886225,0.75307536,-0.6611963
-3.3271203,-0.0064581656,-0.7006111
-3.4837143,-0.8384297,-0.60899836
-2.830707,0.12989569,-0.110454604
-1.1039135,1.3858424,0.6448179
0.92328465,2.0761337,0.96546245
2.479636,0.86173236,0.467984
3.406416,-0.12257199,0.4221776
3.5129426,-0.87145287,0.069575086
2.1419473,-1.0525478,0.1409478
-0.67567724,-0.85121286,-0.34587803
-2.7241807,0.7520101,-0.57064885
-3.361209,-0.400606,-0.58236676
-3.2834446,-0.8096675,-0.2755706
-2.112719,0.28435904,0.5031377
0.2031659,1.2249875,1.0709237
2.008789,1.1418968,0.60114205
3.2018852,0.320578,0.47970188
3.648231,-0.75640434,0.17716679
2.4807012,-0.67970526,-0.0060586915
-0.22933146,-0.91406345,-0.2212421
-2.4813004,0.7093995,-0.5940847
-3.313272,0.013781859,-0.5653225
-3.2621393,-0.75640434,-0.35226962
-2.383296,0.15865782,0.3113901
-0.23785357,1.2111391,1.0954248
1.6497949,1.0172609,0.87278444
2.894024,-0.16837835,0.3625228
3.659949,-1.3114071,0.048269793
3.3148034,-1.254948,-0.16904415
1.484679,-0.8586697,-0.04014715
-1.2807474,0.065979816,-0.42151183
-2.9233851,0.4345613,-0.4939498
-3.394232,-0.67864,-0.5568004
-3.3111415,-0.6200505,-0.4971456
-2.164917,0.7562712,0.019507654
0.08811734,1.6191354,0.84615284
1.9491343,1.218596,0.5436177
3.3179991,-0.4240418,0.35187015
3.8900461,-2.1604228,-0.05399559
3.1422305,-1.8376477,-0.20739366
0.5834653,-1.1654658,-0.13815148
-2.2352245,0.76585853,-0.52803826
-3.349491,0.39088547,-0.5962152
-3.5412385,-0.41019338,-0.58875835
-3.0810444,0.6444184,-0.12217251
-1.4650382,1.8481672,0.8855676
0.55576843,2.2050307,1.0911636
2.2484736,0.7200522,0.40193757
3.4160035,-0.3228417,0.47117978
3.836783,-1.3817146,0.03548662
2.4849622,-1.4701315,-0.03695136
-0.5446497,-0.7553391,-0.18715364
-2.7763786,0.7019427,-0.25639585
-3.603024,0.12243883,-0.18502311
-3.44643,-0.64135575,-0.12962936
-2.3598604,-0.30686274,0.15373097
-0.2101567,0.40899497,0.5180514
1.5081148,1.1110042,0.28582376
2.6138594,0.44627923,0.062118232
3.1773841,-0.78623176,-0.03908189
2.9643314,-1.9175426,-0.50460243
1.7659088,-1.7471002,-0.24574319
-0.27407256,-0.5050019,-0.026298715
-1.5704994,1.5743942,0.55640095
-1.6312194,0.33549172,0.42963445
-1.3478591,-0.77451384,0.38276282
-0.7268099,-0.17690048,0.766258
-0.108956575,0.64974475,0.9292435
0.36721662,0.3994076,0.64375263
0.92328465,1.57759,0.26451847
1.0692259,3.2149014,0.44454816
0.7720171,3.6271589,0.6384263
0.42580616,3.2436635,0.45946187
-0.0045606634,3.7709694,-0.12110725
-0.36994636,5.0918975,-0.57917094
-0.46049383,5.015198,-0.1615873
-0.48712546,4.3195806,-0.24680845
-0.5190834,3.2404678,-0.80926806
-0.40510008,3.0146317,-1.1054115
-0.13878398,3.720902,-1.0958242
0.096639454,4.601876,-1.1608053
0.26708177,4.9587393,-1.3035507
0.46095988,4.6412907,-1.336574
0.27347335,4.8511477,-0.8955545
-0.13984925,5.137704,0.026964506
-0.5212139,4.132094,0.8269781
-0.76729,3.0039792,0.8088686
-0.6437193,1.4550847,0.7598664
-0.36781582,0.007390272,0.72258216
-0.12813133,-0.5998105,0.7236474
0.2180796,-0.65094316,0.6426873
0.7848003,-0.77664435,-0.018841865
1.1160976,0.44201815,-0.019907128
0.8071708,1.0609368,0.669319
0.41195774,-0.2482732,0.6618621
0.15735953,-2.1508355,0.23682159
0.08279102,-4.0043955,-0.04014715
0.055094145,-5.158077,-0.24467792
0.067877315,-5.4627423,-0.2990064
0.1850564,-6.027333,-0.0039281626
0.36402082,-6.1551642,0.17184047
0.5387242,-5.6971006,0.26345322
0.6069011,-4.4390235,0.37530598
0.68040437,-3.8563237,0.47544083
0.9275457,-4.5231795,0.51272506
1.1650996,-5.2209277,0.31032485
1.2215587,-5.3743258,0.12070777
1.0202237,-5.010005,0.12070777
0.63033694,-4.3186483,0.16864468
0.26495123,-4.1620545,-0.023102922
7.656588E-4,-4.173773,-0.27024427
-0.20909144,-3.925566,-0.49608034
-0.16967665,-3.3908033,-0.7432217
0.16481638,-1.9218036,-1.0233862
0.5600295,-0.20566261,-0.8241818
0.45669883,-0.42617235,-0.5568004
0.11794475,0.37171072,-0.5205814
-0.45836332,0.9735851,0.25919214
-0.65756774,0.9075387,0.59475046
-0.26768097,0.6007426,0.18036258
0.04657203,0.5911552,-0.14560834
-0.019474365,1.0343052,-0.398076
-0.17500298,1.6755943,-0.03908189
-0.32307473,1.7320534,0.54681355
-0.3710116,2.1730728,0.19953734
-0.20589565,2.5501764,0.20486367
-0.11747869,1.8524283,0.35187015
-0.11215237,1.4540193,-0.0017976337
0.30862707,0.57730675,0.21445104
0.7144928,-0.102331966,0.15799204
0.84019405,1.0502841,-0.48649296
0.7741476,2.7120967,-0.10512828
0.4875915,2.6396587,0.4647882
0.07213838,2.9400632,0.2485395
-0.32627052,3.5014577,0.1409478
-0.64265406,3.579222,0.32843435
-0.9174923,3.4705648,0.26877952
-1.1252189,3.0529814,0.050400324
-1.1348063,2.8388631,-0.1701094
-0.98460394,2.5672207,-0.305398
-0.7736816,1.9461715,-0.3203117
-0.57660764,1.5520236,-0.45666555
-0.43599275,1.3666676,-0.51418984
-0.42107907,0.79781646,-0.5514741
-0.4381233,0.23642212,-0.6856974
-0.4796686,0.035087146,-0.53442985
-0.5308013,-0.5007409,-0.39061916
-0.5393234,-1.0078068,-0.37037912
-0.48073387,-0.436825,-0.23402528
-0.40296957,1.2825118,-0.34587803
-0.380599,2.1730728,-0.11151987
-0.34970635,1.7309881,0.21232052
-0.32840106,0.6390921,0.0035286883
-0.16754612,-0.25679532,-0.19034944
0.15203321,-0.65946525,0.048269793
0.4311325,-0.771318,0.43496078
0.72940654,-1.4019545,0.40087232
1.0330069,-2.290385,0.111120395
1.1970576,-3.7977343,0.02057292
1.3163673,-4.4464803,-0.33735594
1.3643042,-4.0885515,-0.6377605
1.222624,-3.3439317,-0.5802362
0.83273715,-2.5055685,-0.6079331
0.67081696,-2.1348565,-0.4012718
0.41408825,-2.1508355,-0.24893898
-0.24531043,-1.858953,-0.13069463
-1.0218881,-0.85547394,3.3289514E-4
-1.7345501,-0.08848353,0.14840466
-1.9444072,0.13096094,0.13242568
-1.8485334,0.29820746,0.13562147
-1.4895393,0.06811035,0.24427845
-0.7406584,-0.43789026,0.09727196
0.18612167,-0.6083326,-0.0326903
0.88280463,-0.28236166,-0.3022022
1.4793527,-0.043742422,-0.07317035
1.9938754,-0.1012667,-0.11897672
2.0194418,-0.2930143,0.069575086
1.0468553,-0.5625262,0.2187121
-0.8194879,-0.622181,0.2336258
-2.2522686,0.47184557,0.56705356
-2.903145,0.7669238,0.16438362
-3.3526866,0.22790001,0.095141426
-3.0416296,-0.09167932,0.4253734
-1.7569207,-0.7841012,0.6149905
-0.04717124,-0.9311077,0.61925155
1.392001,-0.32816803,0.18462364
2.4487433,0.41325602,0.16864468
3.365936,0.5400225,0.28156272
3.164601,0.14054832,0.18781944
1.1246196,-1.0536131,0.13668674
-1.3617076,-0.60087574,0.12070777
-2.6709175,-0.0011318434,-0.016711336
-3.1066108,-0.4666524,-0.066778764
-2.8552082,-0.49328402,0.18355837
-1.3617076,-0.03415504,0.6448179
0.6633601,0.012716594,0.78969383
2.0950756,0.063849285,0.048269793
2.9046764,-0.33029854,-0.12643357
3.4032202,-1.1633353,-0.2990064
2.8269122,-1.415803,-0.603672
1.0127668,-1.1761185,-0.48116663
-0.99632186,-0.07996141,-0.20419787
-1.8826219,0.5517404,0.29754168
-1.7707691,-0.37397438,0.54042196
-1.2413327,-0.9854362,0.6703842
-0.4317317,-1.282645,0.72045165
0.6292717,-0.5444167,0.822717
1.4740263,0.6390921,0.35826173
2.342217,2.1624203,-0.22869895
2.8439565,3.0806782,-0.29794115
2.4615264,3.22875,-0.29474536
1.6615129,2.737663,-0.060387176
1.0202237,2.5938523,0.16118783
0.6399243,2.3499067,0.11218566
0.3736082,1.7842513,-0.29154956
0.26282072,1.3144697,-0.6707837
0.3981093,1.6287228,-0.79541963
0.7219497,2.1006348,-0.94242615
0.9307415,3.1680298,-0.6707837
0.86256456,3.3448637,-0.15199992
0.6335327,2.3254056,0.1526657
0.35443345,1.7107481,0.30499852
0.3139534,0.67211527,0.52657354
0.56748635,-0.735099,0.71192956
0.8817393,-1.782254,0.4637229
1.0319417,-2.148705,0.069575086
0.98507,-2.6589665,-0.098736696
0.8817393,-3.3993254,-0.454535
0.7890613,-3.29706,-0.4460129
0.6452506,-2.6184866,-0.056126118
0.40769666,-2.196642,-0.04014715
0.14564162,-1.9654795,-0.30433273
0.09131314,-1.5883758,-0.40446758
0.15416373,-1.2773186,-0.377836
0.100900516,-1.0695921,-0.34800857
0.13179319,-1.2560134,-0.37250966
0.13498898,-2.165749,-0.5802362
0.0028961876,-2.5939856,-0.50460243
-0.3124221,-2.7676237,-0.16052203
-0.58832556,-2.2925155,0.08555405
-0.74598473,-1.6245948,0.19634154
-0.76196367,-0.58489674,0.26451847
-0.61921823,0.3962118,0.26877952
-0.35503265,0.33123067,0.3124554
-0.029061746,-0.62963784,0.21232052
0.2660165,-1.3497566,0.18142785
0.5525726,-1.0120678,0.26025742
0.7155581,-0.09700564,0.3689144
0.7038402,1.182377,0.43922183
0.5887916,1.3059477,0.32843435
0.32034498,0.31525168,0.032290827
-0.057823885,-0.42830288,-0.16052203
-0.3752727,-0.48689243,-0.15945677
-0.710831,-0.6456168,-0.23615581
-1.1049788,-1.0632005,-0.19780628
-1.3201622,-1.3220598,-0.19247997
-1.2690295,-1.1963586,-0.15732624
-1.1039135,-0.40167126,0.0024634239
-0.65756774,-0.115115136,0.06637929
-0.021604894,-0.3015364,-0.0039281626
0.4875915,-0.17157415,-0.27663586
0.76775604,0.060653493,-0.38635808
0.79971397,0.11285145,-0.22017685
0.83593297,0.039348204,-0.059321914
0.96483,0.0031292143,-0.052930325
0.96589524,0.135222,0.065314025
0.6196843,-0.1492036,0.0024634239
0.07320364,-0.23762055,0.12070777
-0.5755424,-0.24294686,0.10366354
-1.0421282,0.16291888,0.021638183
-1.153981,0.6209826,-0.023102922
-1.2115053,0.17996311,-0.176501
-1.0389324,-0.80327594,-0.10086723
-0.49245176,-1.1345732,0.49887666
0.068942584,0.2673148,0.5798367
0.5951832,1.7917082,0.5904894
0.99998367,1.6926386,0.71832114
1.2098408,0.6742458,0.5904894
1.2183629,-0.019241339,0.3113901
1.0660301,-0.036285568,0.19314575
0.76988655,0.41006023,0.067444555
0.41515353,1.0801115,-0.16584836
0.15949006,1.6202006,-0.2638527
0.0028961876,1.9738684,-0.140282
-0.124935545,2.395713,0.024833977
-0.22933146,3.112636,0.13562147
-0.30709577,3.8114495,0.3092596
-0.39125165,4.1544647,0.49994192
-0.55636764,4.0703087,0.57131463
-0.7608984,3.8956053,0.53829145
-0.9079049,3.8625822,0.5691841
-0.9228186,3.4620428,0.70234215
-0.8567722,2.814362,0.730039
-0.7715511,2.278534,0.56279254
-0.7491805,1.8620156,0.5425525
-0.7694205,1.5658721,0.5681188
-0.75663733,1.2239223,0.50846404
-0.66076356,0.9075387,0.4498745
-0.49884337,0.6593321,0.40087232
-0.30389997,0.4803677,0.3358912
-0.13026187,0.320578,0.26132268
-0.009886986,0.14907044,0.20592894
0.06681205,0.014847123,0.14627412
0.11687948,-0.08102667,0.07596667
0.1584248,-0.12257199,0.07383614
0.19464378,-0.098070905,0.13029516
0.18612167,-0.069308765,0.23682159
0.13285846,0.03615241,0.33482593
0.059355203,0.16185361,0.3678491
0.013548832,0.24068318,0.3476091
-0.009886986,0.31844747,0.29754168
-0.005625928,0.41538656,0.25067005
0.03272359,0.4526708,0.23895213
0.08811734,0.41325602,0.2900848
0.14670688,0.35466647,0.35187015
0.19890484,0.36851493,0.37530598
0.20210063,0.46012765,0.3742407
0.19144799,0.5315004,0.34654385
0.2063617,0.42710444,0.26451847
0.2958439,0.0020639498,0.14307833
0.41728404,-0.48369664,0.015246597
0.51635367,-0.84162545,-0.0806272
0.5802695,-0.900215,-0.09127984
0.6005095,-0.8458865,-0.00818922
0.56748635,-0.8618655,0.1558615
0.53339785,-0.85121286,0.29541114
0.49824414,-0.622181,0.3710449
0.40450087,-0.33349434,0.18568891
0.3618903,0.5485446,-0.05825665
0.47161254,1.1120695,0.26132268
0.51315784,-0.20033629,0.4850282
0.48226517,-1.1665311,0.17716679
0.54724634,-1.1654658,-0.1701094
0.58772635,-0.24081634,0.26345322
0.6995791,0.6753111,0.3870239
0.8029098,0.41112548,0.13562147
0.8742825,-0.102331966,-0.0806272
0.92115414,-0.6722484,0.054661382
0.9105015,-1.1090069,-0.023102922
0.9339373,-0.86612654,-0.3831623
0.9307415,0.21937789,-0.16478309
0.9424594,1.5797206,-0.04014715
1.0734869,2.1645508,0.030160299
1.0905311,-0.47091347,0.32736906
0.9701563,-2.4480443,0.111120395
0.8860004,-2.0336564,-0.5482783
0.8093014,-0.5177851,-0.00818922
0.8455204,1.1994212,0.53083456
1.0766827,1.3730593,0.39448074
1.1033144,0.1863547,0.21338578
0.9243499,-1.7044897,0.27517113
0.8082361,-2.737796,0.113250926
0.7965182,-1.7737318,-0.09234511
0.7826697,1.09396,-0.17330521
0.86043406,1.9056915,-0.18076205
0.7357981,-0.1492036,0.098337226
0.5365937,-1.2932976,-0.490754
0.6005095,-1.6927718,-0.8529439
0.76136446,-1.3028849,-0.53229934
0.8998488,-0.8650613,-0.5568004
0.8657604,-0.86612654,-0.4524045
0.69851387,-1.1196595,-0.24361266
0.58772635,-1.0749184,-0.18502311
0.49611363,-1.0110025,-0.18076205
0.45350304,-0.86719185,-0.18502311
0.4577641,-0.3611912,-0.23402528
0.39597875,0.53469616,-0.045473475
0.5035705,1.1227221,0.08448879
0.94139415,1.0108694,-0.40340233
1.2204934,-1.9548268,-0.69208896
0.81036663,-2.8816068,-1.1863717
0.52487576,-0.65094316,-0.98716724
0.88067406,0.50273824,-0.2095242
1.412241,0.43243077,-0.8486829
1.7030582,-0.92365086,-0.9882325
1.6647087,-1.9090204,-0.8103333
1.403719,-1.3263208,-0.79755014
1.1363375,-0.33562487,-0.47797084
1.0287459,0.42177814,-0.27130952
1.1097059,0.18741997,-0.21165472
1.3014535,-0.8022107,-0.096606165
1.4346116,-1.8248645,-0.024168186
1.5603127,-2.1252692,0.16012256
1.4697653,-1.6267253,0.37850177
1.2812135,-0.3526691,0.5542704
1.5432686,0.8872987,0.21232052
2.157926,-0.83097285,0.3124554
2.0716398,-3.1649673,-0.06997456
1.9139806,-1.8014287,-0.1796968
2.1792314,-0.86719185,0.6512095
2.7363646,-0.8448213,0.59475046
3.30202,-1.8781278,0.15479624
3.635448,-2.8123646,0.21232052
3.7856503,-2.805973,0.13881727
3.9401135,-2.161488,0.02057292
4.164884,-1.7236644,0.004593953
4.3832636,-1.7119465,-0.098736696
4.5686197,-1.8706709,-0.21911158
4.66982,-1.9100857,-0.26172215
4.726279,-1.6831844,-0.21698105
4.7603674,-1.404085,-0.10193249
4.83174,-1.3646703,0.024833977
4.8008475,-1.6022242,0.14840466
4.4567666,-1.8461698,0.28262797
3.9710062,-1.9782627,0.3625228
3.5662057,-1.6810539,0.5073988
3.168862,-1.1122026,0.75027907
2.5776403,-0.8299076,1.0315088
1.774431,-0.8000802,1.2339091
1.0074406,-1.1249858,1.5289874
0.40343562,-1.6874454,1.8102171
0.19251326,-2.0368521,1.6813202
0.17014271,-1.4253904,1.5865116
0.050833087,-0.7894275,1.833653
-0.026931217,-1.1494869,1.668537
0.067877315,-2.0943763,1.0538794
0.17546903,-2.7218173,0.56492305
0.24790701,-3.8861513,0.1920805
0.4311325,-4.1279664,-0.970123
0.38532612,-3.8382144,-1.6508269
0.098769985,-5.256081,-1.2108728
-0.40616536,-6.575944,-0.48755822
-0.3688811,-6.3767395,0.40193757
0.24045016,-4.7319713,0.83123916
0.5706821,-4.827845,1.0048772
0.41834933,-3.9575238,0.6267084
-0.0141480435,-1.9292605,0.07383614
-0.25702834,0.31312117,0.023768712
-0.2996389,1.9184747,-0.0657135
-0.3124221,1.9909127,0.044008736
-0.29218206,1.7885123,-0.05399559
-0.25383255,2.7856,-0.09021458
-0.25276726,3.3629732,0.16544887
-0.159024,2.4713469,0.35932702
0.09024787,0.80420804,0.17290573
0.18931746,-0.051199272,-0.24680845
0.09557419,0.33975276,-0.30646327
0.10835736,1.1845075,-0.30859378
0.13605425,1.0460231,-0.31498536
-0.012017515,0.123504095,-0.19674103
-0.13239239,-0.49008822,-0.2542653
-0.07273759,0.33229592,-0.2095242
0.045506764,1.1024821,-0.0017976337
0.07533417,1.4305836,0.04187821
0.114748955,2.34245,-0.13708621
0.045506764,4.579505,-0.13815148
-0.30389997,4.458065,0.21125525
-0.2698115,1.573329,0.2996722
0.10622684,-0.93430346,-0.12110725
0.3171492,-1.8216687,-0.097671434
0.32780182,-0.86080027,0.0599877
0.21594907,-0.20459735,0.44454816
0.096639454,-0.68929267,0.46052712
-0.0045606634,-1.1505522,0.15479624
-0.0844555,-1.1878364,0.3294996
-0.09297761,-0.7191201,0.5329651
-0.02267016,-0.5955494,0.5329651
0.08066049,-0.7809054,0.5073988
0.38426086,-0.7990149,0.036551885
0.5302021,-0.33242908,-0.3799665
0.42900196,0.13948306,-0.25000423
0.17120796,-0.2685132,0.11218566
0.009287775,0.32803488,0.09727196
0.0114183035,1.2015517,-0.10619355
0.07959522,2.0154138,-0.13602096
-0.016278572,2.8164926,-0.37890124
-0.1291966,3.3001225,-0.36611807
-0.21761355,3.567504,-0.18715364
-0.20589565,3.1413982,-0.057191383
-0.10149973,2.459629,-0.049734533
-0.00136487,2.161355,-0.1317599
-0.029061746,2.1688118,-0.007123956
0.01780989,1.8652115,0.053596117
0.13498898,1.4092783,0.18568891
0.16162059,0.9565409,0.22510369
0.16162059,0.7829028,0.22510369
0.16375111,1.0289788,0.27197534
0.13818477,1.5062174,0.28582376
0.018875154,1.923801,0.28262797
-0.11960922,2.149637,0.22510369
-0.16967665,2.064416,0.2006026
-0.1142829,1.9493673,0.17929731
0.0018309233,1.9514978,0.13881727
0.098769985,1.8524283,0.18355837
0.23831962,1.0470884,0.19421102
0.40130508,-0.14068149,0.21445104
0.5802695,-1.1974238,0.36039227
0.77947396,-1.7950372,0.34334803
0.86682564,-1.7577529,0.17503627
0.75284237,-0.7265769,0.061052967
0.5866611,0.7669238,0.062118232
0.42367563,1.6777248,-0.047604006
0.28625652,1.7917082,-0.45986134
0.18186061,1.5807859,-0.72298163
0.05615941,1.53711,-0.8582702
-0.09084708,1.6798555,-1.0212557
-0.23891884,1.9184747,-1.103281
-0.36781582,2.0420454,-1.1895674
-0.47753808,1.9301926,-1.2907676
-0.5467802,1.7970345,-1.4036856
-0.5915214,1.8481672,-1.4984941
-0.6437193,2.0015652,-1.5432353
-0.7406584,2.045241,-1.6465659
-0.8567722,1.9429758,-1.7754629
-0.9973871,1.7373797,-1.8628145
-1.1656989,1.5861121,-1.9245999
-1.3372065,1.3858424,-1.9416442
-1.5268235,1.1525495,-1.9991684
-1.7675732,0.9639977,-2.0364528
-2.020041,0.7743807,-2.0151474
-2.285292,0.57517624,-2.001299
-2.5473468,0.42923498,-1.9895811
-2.7923577,0.27796742,-1.9970379
-3.014998,0.15120097,-2.0151474
-3.2291162,0.08302405,-2.0258
-3.4134068,0.04787032,-1.9949074
-3.571066,0.07024087,-1.8873156
-3.715942,0.10006828,-1.8042251
-3.8448389,0.18422417,-1.7552229
-3.8799927,0.41325602,-1.747766
-3.8096852,0.7136606,-1.7094165
-3.6871798,0.8915597,-1.6476312
-3.595567,0.84042704,-1.6316522
-3.5412385,0.7104648,-1.5837153
-3.4964974,0.60180783,-1.4707973
-3.4656048,0.5560014,-1.332313
-3.4592133,0.5964815,-1.1948938
-3.4496257,0.70513844,-1.0500178
-3.4038196,0.8809071,-0.83696496
-3.3324468,0.96080196,-0.5919541
-3.2781181,0.9767809,-0.34481278
-3.2269855,1.0747852,-0.09234511
-3.1417644,1.2654675,0.040812943
-3.0299118,1.5317837,0.10259828
-2.9084716,1.7096828,0.17716679
-2.789162,1.8098177,0.25386584
-2.6794395,1.8279272,0.3710449
-2.5473468,1.8076872,0.5073988
-2.3875573,1.8641461,0.58516306
-2.217115,1.9387146,0.62777364
-2.0370853,2.007957,0.6671884
-1.8506639,2.0026305,0.6522747
-1.6844827,1.9589547,0.59155464
-1.5417372,1.8183398,0.51272506
-1.4000571,1.7000954,0.40939444
-1.2551811,1.6244617,0.26558372
-1.1273494,1.5466974,0.13136043
-1.0186924,1.3123392,0.061052967
-0.9206881,0.96932405,-0.0060586915
-0.859968,0.6454837,-0.07849667
-0.83440167,0.46332344,-0.09234511
-0.8301406,0.43243077,-0.07849667
-0.82907534,0.54747933,-0.041212417
-0.82268375,0.61991733,0.032290827
-0.80457425,0.53469616,0.11751198
-0.7726163,0.4079297,0.14733939
-0.74385417,0.32590434,0.11857725
-0.7374626,0.28755483,0.07703193
-0.7545068,0.25027058,0.04933506
-0.7715511,0.2129863,-0.018841865
-0.78433424,0.08835037,-0.09980196
-0.7715511,-0.10978881,-0.140282
-0.72148365,-0.41019338,-0.1914147
-0.6458498,-0.6807706,-0.23296002
-0.56808555,-0.9098024,-0.26491794
-0.48712546,-1.0195247,-0.33096436
-0.4104264,-0.66372633,-0.38848862
-0.3539674,-0.01711081,-0.33948645
-0.3145526,0.45160553,-0.2638527
-0.2943126,0.5698499,-0.2840927
-0.29537785,0.45480132,-0.3352254
-0.29537785,0.42816973,-0.32670328
-0.29005152,0.64335316,-0.27983165
-0.26768097,0.8819724,-0.18608838
-0.21867882,0.88836396,-0.13602096
-0.13984925,0.598612,-0.14454307
-0.038649123,0.17250626,-0.14773886
0.068942584,0.12776515,-0.1317599
0.085986815,0.52084774,-0.02736398
-0.04930177,0.89049447,0.08661931
-0.18885142,1.0428272,0.040812943
-0.20909144,1.0151304,-0.09234511
-0.15156716,1.0183262,-0.20526314
-0.0844555,1.1120695,-0.21165472
-0.02267016,1.2143348,-0.19567576
0.029527798,1.2707939,-0.19780628
0.07213838,1.2239223,-0.20526314
0.12433633,1.118461,-0.18076205
0.1850564,0.9480188,-0.15732624
0.22234066,0.7541406,-0.1136504
0.23086278,0.5091298,-0.049734533
0.21701434,0.33975276,-0.02949451
0.17546903,0.27690217,-0.0039281626
0.1254016,0.23748739,0.013116068
0.07533417,0.16931047,0.004593953
0.021005683,0.090480894,0.015246597
-0.023735423,0.014847123,0.04187821
-0.05675862,-0.06398244,0.046139266
-0.07380285,-0.087418266,0.05253085
-0.067411266,-0.083157204,0.067444555
-0.052497562,-0.100201435,0.07170561
-0.046105977,-0.12044146,0.07064035
-0.040779654,-0.087418266,0.07703193
-0.03545333,-0.042677157,0.09088037
-0.021604894,-0.06504771,0.10046775
-0.00136487,-0.10659302,0.08661931
7.656588E-4,-0.12470252,0.08661931
-0.0024301345,-0.15239939,0.08661931
-0.015213308,-0.20353208,0.08342352
-0.038649123,-0.29088378,0.08981511
-0.059954412,-0.35373437,0.08981511
-0.078063905,-0.31325433,0.094076164
-0.10469552,-0.179031,0.10685934
-0.13239239,-0.09380985,0.13242568
-0.15582821,-0.12683305,0.13988253
-0.17926402,-0.2866227,0.16012256
-0.1984388,-0.45280397,0.16438362
-0.22613567,-0.53163356,0.1920805
-0.23039672,-0.6243115,0.24640898
-0.1984388,-0.67864,0.2219079
-0.20483038,-0.4964798,0.19527629
-0.25596306,-0.10872355,0.18994996
-0.3475758,0.26838005,0.15053518
-0.43599275,0.48356348,0.098337226
-0.4764728,0.5400225,0.033356093
-0.44558012,0.48462874,-0.05399559
-0.36781582,0.4409529,-0.12110725
-0.25383255,0.41112548,-0.15199992
-0.13026187,0.32590434,-0.16478309
-0.03545333,0.12883042,-0.14986938
0.02739727,-0.22483738,-0.10725881
0.057224672,-0.68396634,-0.07423562
0.050833087,-1.1516174,-0.038016625
0.016744625,-1.6341822,0.004593953
-0.0066911923,-2.0752017,0.022703448
-0.018409101,-2.3905199,0.044008736
0.01780989,-2.3276694,0.06850982
0.038049914,-1.8259298,0.10579407
0.021005683,-1.2197944,0.19101523
-0.02053963,-0.71166325,0.19314575
-0.07699864,-0.4240418,0.1228383
-0.14943662,-0.3494733,0.08981511
-0.21867882,-0.39421442,0.054661382
-0.2793989,-0.38675755,0.014181333
-0.33692315,-0.25892583,-0.0060586915
-0.38166428,-0.09913617,-0.022037657
-0.41575274,0.0574577,-0.02736398
-0.43066645,0.20659472,-0.010319749
-0.39125165,0.3450791,-0.019907128
-0.2932473,0.22470422,-0.033755567
-0.16967665,-0.061851915,-0.028429244
-0.059954412,-0.32710275,-0.034820832
0.026332006,-0.49115348,-0.015646072
0.099835254,-0.58276623,0.004593953
0.16268586,-0.5955494,0.009920275
0.19464378,-0.58276623,0.0013981595
0.19144799,-0.53802514,-0.0060586915
0.1765343,-0.47197872,-0.0039281626
0.16375111,-0.40273654,0.010985539
0.15735953,-0.41338918,0.012050804
0.17120796,-0.55826515,-0.004993427
0.21594907,-0.7755791,-0.022037657
0.2777344,-0.8821055,-0.04440821
0.30969235,-0.8789097,-0.09447564
0.33419344,-0.7446864,-0.14454307
0.3533682,-0.5050019,-0.21058947
0.36082503,-0.287688,-0.26917902
0.37573874,-0.100201435,-0.29261482
0.38639137,0.0723714,-0.31178957
0.39384824,0.19061576,-0.31498536
0.40023983,0.2428137,-0.29048428
0.38958716,0.25346637,-0.25959164
0.36402082,0.26518425,-0.21804631
0.33099765,0.3120559,-0.18076205
0.30969235,0.42177814,-0.15626098
0.32567132,0.53256565,-0.1317599
0.36295557,0.558132,-0.11151987
0.41408825,0.4196476,-0.098736696
0.47374305,0.10006828,-0.07743141
0.5323326,-0.3015364,-0.052930325
0.5887916,-0.70740217,-0.042277683
0.634598,-1.0717226,-0.048669267
0.6559033,-1.3657355,-0.057191383
0.6463159,-1.4946326,-0.056126118
0.6132927,-1.4829147,-0.04440821
0.5642905,-1.3582788,-0.009254484
0.5184842,-1.1814449,0.00885501
0.46415567,-1.0259162,-0.010319749
0.38639137,-0.8544086,-0.042277683
0.30436602,-0.6584,-0.07849667
0.22660172,-0.49115348,-0.08914932
0.15096794,-0.38995335,-0.09127984
0.07959522,-0.32071117,-0.082757734
0.018875154,-0.271709,-0.042277683
-0.021604894,-0.25679532,-0.0060586915
-0.057823885,-0.23762055,0.024833977
-0.08339023,-0.19074892,0.05679191
-0.08978182,-0.102331966,0.07277088
-0.059954412,-0.06611297,0.07064035
-0.012017515,-0.12576778,0.062118232
0.03698465,-0.23335949,0.036551885
0.0774647,-0.3292333,0.0035286883
0.099835254,-0.39314917,-0.030559773
0.10196578,-0.44428185,-0.042277683
0.07959522,-0.49221873,-0.034820832
0.028462535,-0.5071325,-0.018841865
-0.048236504,-0.4251071,0.02057292
-0.13878398,-0.27277428,0.10366354
-0.23252726,-0.07996141,0.19527629
-0.32520527,0.10645986,0.27410585
-0.40616536,0.2609232,0.3263038
-0.4711465,0.356797,0.34228277
-0.51375705,0.3983423,0.34547856
-0.52014863,0.40686443,0.35506594
-0.49032125,0.3781023,0.35187015
-0.42107907,0.3237738,0.31565118
-0.31987894,0.21831264,0.26451847
-0.22187461,0.064914554,0.21977736
-0.15156716,-0.114049874,0.20486367
-0.107891314,-0.2663827,0.2219079
-0.078063905,-0.35053858,0.24108265
-0.05675862,-0.39954075,0.25919214
-0.048236504,-0.3856923,0.27836692
-0.05888915,-0.32071117,0.29541114
-0.08552076,-0.21098894,0.3092596
-0.11960922,-0.0682435,0.3081943
-0.14624083,0.065979816,0.30499852
-0.16541559,0.14054832,0.2762364
-0.17926402,0.1533315,0.22829948
-0.19098194,0.13735253,0.17503627
-0.20056932,0.12776515,0.11857725
-0.20802617,0.1266999,0.07064035
-0.2101567,0.12883042,0.026964506
-0.20056932,0.13948306,-0.022037657
-0.17606823,0.16185361,-0.067844026
-0.14517556,0.17037573,-0.10619355
-0.111087106,0.1384178,-0.14560834
-0.07593338,0.060653493,-0.17756626
-0.043975446,-0.033089776,-0.19247997
-0.018409101,-0.114049874,-0.19567576
-0.005625928,-0.16624783,-0.18182732
-0.003495399,-0.18329206,-0.14773886
-0.01095225,-0.17050889,-0.10619355
-0.024800688,-0.14813833,-0.06997456
-0.04930177,-0.1310941,-0.033755567
-0.08339023,-0.12044146,0.0013981595
-0.11960922,-0.10659302,0.046139266
-0.15156716,-0.07996141,0.09088037
-0.17819877,-0.044807684,0.12816462
-0.20269984,-0.008588694,0.15160045
-0.21974407,0.007390272,0.1707752
-0.23039672,0.0031292143,0.1888847
-0.22933146,-0.030959247,0.18781944
-0.22187461,-0.043742422,0.14627412
-0.21228723,-0.052264538,0.11005513
-0.19950405,-0.08102667,0.06850982
-0.18459035,-0.11191934,0.031225564
-0.16648085,-0.100201435,0.02802977
-0.14624083,-0.04587295,0.02057292
-0.12706608,-0.0011318434,0.007789746
-0.107891314,0.022303974,-0.024168186
-0.078063905,0.028695561,-0.0806272
-0.036518596,0.044674527,-0.14880413
0.007157245,0.12883042,-0.25533056
0.055094145,0.16931047,-0.3501391
0.1072921,0.1266999,-0.44068658
0.14883742,9.986854E-4,-0.52271193
0.17120796,-0.12896357,-0.5418867
0.17440376,-0.23229423,-0.5131246
0.16481638,-0.30366695,-0.44707817
0.155229,-0.33029854,-0.35120437
0.15203321,-0.29621008,-0.24787372
0.14883742,-0.21525,-0.15519571
0.1371195,-0.12150672,-0.09341037
0.114748955,-0.056525595,-0.051865064
0.07639943,-0.039481364,-0.020972393
0.015679361,-0.044807684,-0.009254484
-0.04717124,-0.014980281,0.007789746
-0.09297761,0.04787032,0.044008736
-0.11641343,0.13415673,0.06424876
-0.11960922,0.19594207,0.044008736
-0.107891314,0.20233366,-0.0028628982
-0.0993692,0.16398415,-0.07636614
-0.08871655,0.094741955,-0.12643357
-0.06847653,0.020173445,-0.14560834
-0.04184492,-0.04161189,-0.13815148
-0.01095225,-0.085287735,-0.085953526
0.01994042,-0.10446249,-0.0039281626
0.04657203,-0.10765829,0.062118232
0.057224672,-0.1193762,0.096206695
0.049767822,-0.14707308,0.113250926
0.03485412,-0.1460078,0.13562147
0.028462535,-0.13215937,0.15479624
0.028462535,-0.13322464,0.14201306
0.022070948,-0.12257199,0.08661931
0.0039614523,-0.09487511,0.023768712
-0.029061746,-0.06504771,-0.03908189
-0.067411266,-0.071439296,-0.08914932
-0.09830394,-0.08209194,-0.11684619
-0.1142829,-0.058656123,-0.12323778
-0.10682605,-0.00752343,-0.12110725
-0.07593338,0.04041347,-0.12004199
-0.02799648,0.058522966,-0.14560834
0.02739727,0.04787032,-0.19780628
0.08066049,-6.657903E-5,-0.2574611
0.12327107,-0.06291718,-0.3203117
0.14777215,-0.11831093,-0.3735749
0.15949006,-0.12470252,-0.41831604
0.14990267,-0.084222466,-0.44814342
0.13179319,-0.03202451,-0.4279034
0.11687948,-0.026698189,-0.35440016
0.10196578,-0.052264538,-0.25533056
0.07959522,-0.07676562,-0.14880413
0.05402888,-0.069308765,-0.06145244
0.029527798,-6.657903E-5,-0.035886094
0.0028961876,0.09154616,-0.0806272
-0.012017515,0.15439676,-0.16584836
0.0060919807,0.10326407,-0.25852636
0.05402888,-0.05546033,-0.33309487
0.12327107,-0.2898185,-0.40766338
0.18718693,-0.5508083,-0.46838346
0.24577647,-0.6541389,-0.5088635
0.356564,-0.68396634,-0.5653225
0.51315784,-0.9556088,-0.5844973
0.6590991,-1.4189988,-0.619651
0.7400592,-1.8142118,-0.70806795
0.75816864,-1.9164773,-0.76133114
0.79225713,-1.8791931,-0.75920063
0.8114319,-1.9846542,-0.6441521
0.7752129,-2.032591,-0.51632035
0.72940654,-2.1668143,-0.341617
0.6740128,-2.426739,-0.14880413
0.6196843,-2.4437833,0.014181333
0.54937685,-2.0677447,0.11218566
0.41195774,-1.5723969,0.13349095
0.25003752,-1.0078068,0.082358256
0.1254016,-0.56039566,-0.0039281626
0.043376237,-0.48369664,-0.038016625
-2.9960563E-4,-0.53056824,-0.08808405
-0.016278572,-0.5476125,-0.12110725
-0.021604894,-0.44641238,-0.11151987
-0.01095225,-0.044807684,-0.10832407
0.03911518,0.3844939,-0.067844026
0.09131314,0.45480132,-0.018841865
0.13072792,0.53469616,-0.08488826
0.1371195,0.7456185,-0.03908189
0.10196578,1.1227221,0.08448879
0.059355203,1.4050173,0.15160045
0.04018044,1.5094131,0.113250926
-0.02053963,1.3474929,0.06850982
-0.11215237,1.0769157,0.067444555
-0.16115454,0.6795721,0.10472881
-0.20483038,0.15226623,-0.00818922
-0.31029156,0.078762986,-0.19461049
-0.48712546,0.5400225,-0.30433273
-0.7023089,0.87025446,-0.25959164
-0.9387976,0.5879594,-0.2936801
-1.1337409,-0.0043276367,-0.46412238
-1.2818127,-0.30686274,-0.5578657
-1.3244233,-0.24614266,-0.5568004
-1.1710252,-0.06291718,-0.59088886
-0.8258795,-0.30366695,-0.5621267
-0.23572305,-1.0674615,-0.4193813
0.53765893,-1.822734,-0.23722108
1.2002534,-2.6504445,0.023768712
1.2780178,-2.4288695,0.11857725
0.29158285,-1.7961024,0.2549311
-1.3968613,-0.36971334,0.31671643
-2.708202,0.6007426,0.2847585
-3.1257854,-0.071439296,0.19953734
-2.8402946,-0.843756,0.17610152
-1.7207017,-0.8810403,0.40513337
-0.015213308,-0.57637465,0.3081943
1.4356768,-0.3292333,0.0024634239
2.5233119,-0.018176075,0.046139266
3.402155,-0.070374034,0.098337226
2.9526134,-0.2834269,0.14627412
0.8891962,-0.81712437,0.23895213
-1.4799519,-0.4038018,0.06850982
-2.8104672,0.1650494,-0.10938934
-3.2376382,-0.07783088,-0.12643357
-3.1044803,-0.43895552,0.036551885
-1.721767,-0.3888881,0.34334803
0.19038273,-0.0043276367,0.31671643
1.6881446,0.32803488,-0.043342948
2.608533,0.096872486,-0.0326903
3.1219904,-0.87784445,-0.21911158
2.6607308,-1.06107,-0.32883382
0.95098156,-1.0110025,-0.39701074
-1.2605075,-0.13535516,-0.4310992
-2.49941,0.48462874,-0.31924644
-2.849882,0.11391672,-0.23402528
-2.5175195,-0.19820577,-0.057191383
-0.9899303,0.039348204,0.24427845
0.87854356,0.7882291,0.41152495
2.4221117,0.96612823,0.4136555
3.3393044,0.20339893,0.40193757
3.6652753,-1.1494869,-0.016711336
2.8119984,-1.4381735,-0.12430304
0.6473812,-1.0717226,-0.15199992
-1.4980614,0.35253593,-0.25320002
-2.5334985,0.6859637,-0.16478309
-2.644286,-0.23762055,-0.10619355
-2.1542642,-0.6136589,0.04933506
-0.75983316,-0.27277428,0.25280055
0.89345723,0.7019427,0.2549311
2.157926,1.0641326,0.061052967
2.8716533,0.25666216,0.016311862
2.995224,-0.85973495,-0.20845893
2.076966,-0.714859,-0.22550316
0.15949006,-0.12896357,-0.16265257
-1.6589164,0.542153,-0.15519571
-2.5611954,0.22044316,-0.19247997
-2.7284417,-0.39527968,-0.10619355
-2.2203107,-0.33988592,0.053596117
-0.86316377,-0.039481364,0.3444133
0.64205486,0.6827679,0.39874178
1.8266289,0.6817027,0.22936475
2.524377,0.2577274,0.2847585
2.6586003,-0.364387,0.13881727
1.9171764,-0.5721136,-0.047604006
0.32460603,-0.8448213,-0.37037912
-1.3499897,-0.23975107,-0.45346975
-2.234159,0.26944533,-0.2990064
-2.5207152,0.048935585,-0.1136504
-2.3172498,-0.23549002,0.053596117
-1.3180317,-0.48582715,0.15053518
0.018875154,-0.0533298,0.21977736
1.2183629,0.56771934,0.16331835
2.0588565,0.42390865,0.29221535
2.5286381,-0.32071117,0.32204276
2.4689834,-0.8725181,0.14627412
1.4974622,-0.8970192,-0.14560834
-0.11641343,-0.49754506,-0.49501505
-1.5438677,0.41006023,-0.4310992
-2.2714434,0.60180783,-0.27344006
-2.426972,0.12883042,-0.16265257
-2.0690432,-0.22270684,-0.048669267
-0.96436393,-0.09061406,0.05679191
0.4364588,0.4526708,0.021638183
1.5283549,0.8478839,-0.07743141
2.238886,0.4015381,0.029095035
2.6170552,-0.4251071,0.022703448
2.2111893,-0.8362992,-0.10832407
0.7890613,-0.5412209,-0.22656843
-0.859968,-0.0096539585,-0.28622323
-1.915645,0.3120559,-0.24467792
-2.422711,0.09793775,-0.22869895
-2.4365594,-0.08954879,-0.03908189
-1.5822173,-0.25573003,0.08555405
-0.18672088,-0.029893983,0.11644672
1.0702912,0.42710444,0.022703448
1.9459385,0.53895724,0.16544887
2.37524,0.123504095,0.34867436
2.1941452,-0.41658497,0.28369322
1.1278154,-0.39847547,0.03761715
-0.5393234,-0.33136383,-0.25320002
-1.8485334,0.1831589,-0.30326748
-2.5185847,0.3248391,-0.2574611
-2.716724,0.12456936,-0.08808405
-2.1990054,-0.18755312,0.08874984
-0.8716859,-0.09913617,0.19740681
0.5547032,0.49634665,0.11857725
1.597597,0.9160608,0.1409478
2.3091936,0.8031428,0.3145859
2.7544742,0.06917561,0.4285692
2.5488782,-0.69248843,0.22616896
1.3334115,-0.76066536,-0.016711336
-0.33053157,-0.2120542,-0.22550316
-1.4778214,0.6231131,-0.19567576
-1.8932745,0.40579918,-0.11684619
-1.8879482,0.0041944785,-0.02736398
-1.4906045,-0.1012667,-0.00818922
-0.5691508,-0.15026887,0.124968834
0.4875915,0.21724737,0.21232052
1.3323462,0.42816973,0.19740681
1.8085194,0.107525125,0.26132268
1.9896144,-0.7958191,0.2698448
1.8948058,-1.2357733,0.29221535
1.4495252,-1.3071461,0.29754168
0.74325496,-1.1835754,-0.026298715
0.10303105,-0.7532085,-0.6345647
-0.2367883,-0.3409512,-0.8103333
-0.29857364,-0.364387,-0.7251122
-0.21654828,0.039348204,-0.6793058
-0.111087106,0.7679891,-0.43536025
-0.080194436,1.1802464,-0.26172215
-0.123870276,0.9799767,-0.26278743
-0.15369768,0.41432127,-0.19461049
-0.19950405,0.21511683,-0.11897672
-0.23465778,0.7488143,-0.004993427
-0.2793989,1.3826467,0.05679191
-0.3358579,1.532849,0.024833977
-0.3507716,1.2122043,0.07170561
-0.38592532,0.69129,0.11644672
-0.40723062,0.29927272,0.04720453
-0.3901864,0.20552945,-0.013515542
-0.43279696,0.026565032,-0.00818922
-0.6138919,-0.083157204,0.030160299
-0.88766485,-0.3409512,0.065314025
-1.1561115,-0.7276422,0.061052967
-1.3105749,-1.0259162,0.02802977
-1.307379,-1.3241903,-0.0028628982
-1.0953914,-1.0834405,-0.060387176
-0.51162654,-0.4421513,-0.020972393
0.21701434,-0.37397438,0.038682416
0.80397505,-0.32497224,0.08342352
1.2812135,-0.15772572,0.16225308
1.7041235,0.19168101,0.29860693
1.8990669,0.17676732,0.31884697
1.6689698,0.07556719,0.25067005
1.0095711,-0.22590263,0.12177304
0.11687948,-0.7638612,-0.21698105
-0.67567724,-0.5795704,-0.48968875
-1.2935306,-0.5167198,-0.50779825
-1.7452028,-0.6765095,-0.30859378
-1.9774303,-0.7233811,-0.12004199
-1.6120447,-0.059721388,0.02802977
-0.7044394,0.25985795,0.12816462
0.2692123,0.45160553,0.096206695
0.9903963,0.53682667,0.04187821
1.525159,0.64867944,0.055726644
1.8841531,0.6838332,0.24427845
1.8287594,0.5762415,0.25280055
1.0798786,0.17570205,0.0013981595
-0.017343836,-0.3409512,-0.3554654
-0.9132312,-0.43575972,-0.619651
-1.504453,-0.63496417,-0.5088635
-1.9284282,-0.6701179,-0.2393516
-1.967843,-0.3015364,0.15905729
-1.3180317,0.3216433,0.42643866
-0.33798844,0.51445615,0.39128494
0.57387793,0.7221827,0.2517353
1.2812135,0.69129,0.19101523
1.7328856,0.8148607,0.3721102
1.7808225,0.8095344,0.57344514
1.1246196,0.24920529,0.44454816
0.09344366,-0.23655528,-0.015646072
-0.8535764,-0.1641173,-0.3139201
-1.4852782,0.037217677,-0.27663586
-1.794205,-0.24081634,0.02589924
-1.7952702,-0.31325433,0.24321319
-1.2711601,-0.011784487,0.49887666
-0.2975084,0.07343667,0.580902
0.7123623,0.39727706,0.42430815
1.4740263,0.78716385,0.36465332
1.9778965,0.727509,0.5052682
2.1078587,0.33762226,0.4733103
1.4921359,0.38555914,0.40087232
0.39278296,0.18848522,0.16225308
-0.68952566,-0.13002884,-0.21271999
-1.3286843,-0.044807684,-0.31924644
-1.6429373,-0.3015364,-0.14134727
-1.605653,-0.45706502,0.13881727
-1.1848737,-0.3292333,0.13562147
-0.3688811,-0.026698189,0.094076164
0.5014399,0.09900301,0.038682416
1.1810787,0.5038035,0.036551885
1.6774919,0.6998122,0.17929731
1.9214374,0.62417835,0.31671643
1.674296,0.43562657,0.38169757
0.82208455,0.1831589,0.17716679
-0.43066645,-0.059721388,-0.14773886
-1.4011223,0.028695561,-0.3533349
-1.8836871,0.08195878,-0.2872885
-1.8602513,0.1650494,-0.041212417
-1.3670338,0.35573173,0.032290827
-0.5840645,0.2609232,-0.022037657
0.2745386,0.12883042,-7.323693E-4
0.9200889,0.18102838,-0.018841865
1.2971925,0.18741997,0.07277088
1.412241,0.33655697,0.19527629
1.1224891,0.50273824,0.23149528
0.63885903,0.5730457,0.06637929
0.113683686,0.37064543,-0.22550316
-0.48712546,0.32590434,-0.2958106
-1.0176271,0.40047285,-0.10938934
-1.3691643,-0.085287735,-0.019907128
-1.5694342,-0.63922524,-0.07210509
-1.6610469,-1.2197944,-0.10193249
-1.834685,-1.286906,0.04720453
-1.6727648,-0.565722,0.3540007
-0.67887306,-0.15239939,0.40087232
0.48972204,-0.11724567,0.05253085
1.3131714,-0.5358946,0.12922989
1.8426079,-0.4879577,0.43283024
1.7328856,0.014847123,0.5787715
0.908371,0.634831,0.669319
-0.44238433,-0.09274458,0.36997965
-1.685548,-0.46771768,0.061052967
-2.5654564,-0.31005853,0.048269793
-2.9212546,-0.29834062,0.3145859
-2.5899575,-0.18648785,0.39448074
-1.3201622,-0.022437133,0.266649
0.413023,0.025499767,0.108989865
1.7190372,0.27051058,-0.27450532
2.5744445,0.6593321,-0.1434778
2.8599353,0.6593321,0.02802977
1.7339509,0.5815678,0.123903565
-0.56595504,-0.4698482,0.0930109
-2.4024708,-0.48582715,-0.3320296
-3.0693264,-0.29621008,-0.40766338
-3.1992886,-0.06611297,-0.20739366
-2.447212,0.11285145,0.14307833
-0.6841994,-0.056525595,0.6064684
1.1097059,0.24920529,0.48076716
2.471114,0.25879267,0.062118232
3.370197,0.45054027,0.1079246
3.349957,0.25879267,0.28582376
1.4388727,-0.93856454,-0.0060586915
-1.3627728,-1.5276557,-0.4726445
-3.0086064,-0.5177851,-0.5003414
-3.4229941,-0.13748568,-0.23722108
-2.9723873,-0.15985624,-0.13495569
-1.3063138,0.14907044,0.065314025
0.69318753,1.2388359,0.24960478
2.265518,1.6478975,0.34867436
3.264736,1.0811768,0.49994192
3.3531528,-0.07996141,0.40300286
2.0918798,-0.94815195,0.05679191
-0.22720093,-0.8703876,-0.27130952
-1.9710388,0.28968534,-0.41725075
-2.5452163,0.064914554,-0.2542653
-2.5984795,-0.0384161,-0.24467792
-2.0669127,0.19913787,-0.08914932
-0.581934,0.48356348,0.24321319
0.872152,0.88623345,0.35506594
1.4378073,0.015912388,0.20592894
1.44846,-1.3071461,0.2006026
1.331281,-1.1175289,0.20699419
1.1405987,0.59967726,0.49461558
0.83380246,1.9738684,0.617121
0.4481767,2.3296666,0.45946187
0.27666914,2.2806644,0.60114205
0.22340593,2.265751,0.8120644
0.10835736,2.6620293,0.761997
-0.0045606634,2.9975874,0.5329651
-0.16008927,3.1019835,0.14840466
-0.2793989,3.32995,-0.3948802
-0.19950405,3.4247587,-0.68995845
-0.110021845,3.1211581,-0.933904
-0.15689348,3.2639036,-1.4825152
-0.19630826,3.9723046,-1.8649452
-0.20802617,5.1132026,-1.8862504
-0.17393771,5.787515,-1.8734672
-0.08871655,6.374476,-1.8713367
-0.08978182,6.7451878,-1.3664013
-0.1142829,5.8897805,-0.3597265
-0.07593338,4.05433,0.27517113
-0.009886986,2.2039654,0.3689144
0.12007528,0.70513844,0.55533564
0.2713428,-0.13002884,0.64588314
0.3554987,-0.49541453,0.45733133
0.4162188,-1.0408299,0.36145753
0.4481767,-1.5830495,0.49035454
0.4428504,-3.1372702,0.53829145
0.37786928,-5.195361,0.31032485
0.23192804,-6.667557,0.048269793
0.07426891,-7.3077807,-0.4279034
-0.19311246,-6.753843,-0.5663878
-0.5531719,-5.7482333,-0.23509054
-0.80244374,-4.5849648,-0.32670328
-0.8823385,-3.950067,-0.24574319
-0.41788325,-3.8083868,0.25919214
0.8007792,-3.3183653,-0.05825665
2.0396817,-3.075485,0.06637929
2.8950891,-3.084007,0.56705356
3.490572,-2.7665584,0.52231246
3.2434306,-1.931391,0.5617272
1.3813484,-1.3806493,0.30712906
-1.2775517,-1.1409647,-0.20313261
-3.0128675,0.026565032,-0.30113694
-3.7617483,0.0063250074,-0.30113694
-3.7574873,-1.1313775,0.017377125
-2.793423,-1.3710619,0.21658157
-0.8152269,-0.5955494,0.580902
1.1203586,0.17037573,0.73856115
2.4817665,0.19061576,0.6000768
3.4671361,-0.1012667,0.6245778
3.7803237,-0.48369664,0.40832916
2.5371602,-1.0163288,-0.07849667
-0.023735423,-0.9012803,-0.41512024
-2.293814,0.6060689,-0.28941903
-3.4528217,0.47504136,-0.079561934
-3.7052894,-0.5444167,0.009920275
-3.2994235,-0.9737183,0.051465586
-1.8602513,-0.43149868,0.22723421
0.17759955,0.6859637,0.4434829
2.072705,1.1727896,0.41578603
3.2413,0.43030024,0.15053518
4.0285306,-0.32710275,0.15692677
3.6450353,-0.45067343,0.16864468
1.4516559,-0.6807706,-0.19674103
-1.3521202,-0.31751537,-0.42364234
-3.12472,0.6934206,-0.3916844
-3.6871798,-0.42617235,-0.2542653
-3.534847,-0.92365086,-0.2393516
-2.5058014,-0.24188161,-0.25106952
-0.6980478,0.34401384,0.26025742
1.3483251,0.8095344,0.32097748
2.8599353,0.19274628,0.06850982
3.777128,-0.4400208,-0.10406302
4.098838,-0.3196459,0.02589924
2.6980152,0.08515458,0.31032485
-2.9960563E-4,-0.26744795,0.13455622
-2.2629213,-0.24081634,-0.24680845
-3.2387035,-0.20566261,-0.19034944
-3.5135417,-0.807537,-0.12643357
-3.164135,-0.22057632,-0.21058947
-1.5683688,0.5240435,0.21658157
0.44498092,1.2910339,0.51059455
2.0716398,0.95760614,0.42324287
2.9771144,-0.30260167,0.173971
3.5896416,-1.3199292,0.09194563
3.229582,-1.4999589,0.081292994
1.5944012,-1.3028849,0.13349095
-0.6799383,-0.7659917,0.15373097
-2.080761,0.4771719,0.18675417
-2.4461467,0.2129863,0.16225308
-2.326837,-0.12896357,0.08342352
-1.7835523,0.17570205,0.023768712
-0.5510413,0.5283046,0.27943218
0.9307415,0.78716385,0.2762364
2.0822923,0.79568595,-0.10832407
2.7118635,-0.19820577,-0.14241254
2.8354342,-1.2251207,-0.49181926
2.137686,-1.1569438,-0.6548047
0.62820643,-0.26744795,-0.56106144
-0.9537113,0.73496586,-0.11578093
-1.689809,0.70620376,0.38169757
-1.6461332,-0.09913617,0.52870405
-1.2413327,-0.36651754,0.5478788
-0.6234793,0.020173445,0.76732326
0.023136212,0.9160608,0.83763075
0.42900196,1.8066219,0.7960854
0.54085475,3.0433939,0.75027907
0.51102734,3.8348854,0.75027907
0.28625652,4.156595,0.580902
0.0050267167,3.971239,0.069575086
-0.27726835,3.6495295,-0.26172215
-0.62454456,3.5291545,-0.6771753
-0.8301406,3.9850876,-1.227917
-0.7896606,5.6074853,-1.5783889
-0.6032393,8.035223,-1.6199343
-0.39125165,9.168665,-0.74109113
-0.08978182,7.8871512,0.21977736
0.112618424,4.9342384,0.124968834
0.16588165,2.2593594,-0.082757734
0.26069018,0.5155214,0.63949156
0.67507803,-0.5113935,0.94735295
1.0063753,-0.54228616,0.7332348
1.2737566,-0.5838315,1.0496184
1.3611083,-0.93643403,1.3393703
1.3866746,-2.0485702,1.1359048
1.3909358,-3.5921383,1.0315088
1.4335463,-5.3658037,0.7875633
1.6753614,-6.141316,0.34867436
1.9043932,-5.939981,0.2336258
1.9917449,-4.578573,0.22936475
2.0194418,-3.7434058,0.15905729
1.9310248,-4.6755123,-0.055060856
1.6753614,-5.722667,-0.3203117
1.3568473,-6.440655,-0.28515798
1.0042448,-6.620685,-0.39274967
0.62394536,-5.288039,-0.54082143
0.42261037,-3.6454015,-0.15732624
0.29690918,-2.6334002,0.015246597
0.15629427,-1.8483003,-0.10938934
0.1254016,-1.1601396,-0.17437047
0.22873224,-0.3228417,-0.17543574
0.27347335,-0.09487511,-0.23082949
0.10942263,-0.13535516,-0.2872885
-0.1291966,0.4026034,-0.22656843
-0.35503265,1.182377,-0.0955409
-0.5542371,1.8396451,-0.030559773
-0.694852,2.0036957,0.022703448
-0.7715511,1.7490976,-0.014580807
-0.74172366,1.5605458,-0.10619355
-0.6703509,1.4188657,-0.056126118
-0.6522414,1.3166002,0.016311862
-0.6980478,1.1429621,0.0056592175
-0.74705,1.2058128,0.0024634239
-0.80670476,1.340036,0.042943474
-0.84292376,1.3581456,0.11538146
-0.7896606,0.965063,0.13775201
-0.61282665,0.34401384,0.07170561
-0.36248952,-0.10872355,-0.010319749
-0.1291966,-0.25573003,-0.007123956
0.07107311,0.45373607,0.033356093
0.24364595,1.8066219,0.08342352
0.3501724,2.6162229,0.20486367
0.3704124,2.4947827,0.2964764
0.32993236,1.5829164,0.23575634
0.26175544,0.42710444,0.1558615
0.20955749,-0.30899325,0.14201306
0.20742697,-0.29194903,0.16438362
0.21275328,0.18209364,0.20592894
0.29690918,0.4611929,0.33908698
0.5003747,0.0063250074,0.4552008
0.6633601,-0.5050019,0.27730164
0.67827386,-0.7457517,0.061052967
0.5728127,-0.87145287,0.07596667
0.39384824,-0.3707786,-0.057191383
0.19997011,0.2310958,-0.09341037
0.03272359,0.52297825,0.04720453
-0.03225754,0.6295047,0.012050804
-0.052497562,0.3599928,-0.022037657
-0.066346,-0.14494254,0.04933506
-0.10043446,-0.8980845,0.046139266
-0.122805014,-1.1686617,-0.020972393
-0.054628093,-0.87145287,0.046139266
0.01780989,-0.59661466,0.033356093
-0.012017515,-0.7478822,-0.045473475
-0.18991667,-1.2197944,-0.1701094
-0.3028347,-1.3838451,-0.19034944
-0.29537785,-1.3369734,-0.20100208
-0.21441776,-1.178249,-0.28622323
-0.12067448,-0.9108677,-0.29794115
-0.079129174,-0.5912883,-0.2819622
-0.123870276,-0.52843773,-0.26491794
-0.20909144,-0.5753094,-0.22550316
-0.29218206,-0.42297655,-0.23615581
-0.23891884,-0.06291718,-0.23722108
-0.096173406,0.39408126,-0.19034944
0.067877315,0.67850685,-0.14986938
0.20955749,0.68489844,-0.10619355
0.30436602,0.56558883,-0.11897672
0.3682819,0.4824982,-0.05825665
0.4279367,0.41325602,0.050400324
0.4843957,0.49847716,0.11964251
0.5099621,0.71685636,0.23682159
0.5589642,0.8425576,0.32204276
0.59411794,1.1142,0.3838281
0.6537728,1.4252572,0.42324287
0.66868645,1.412474,0.44454816
0.61222744,0.7914249,0.33695644
0.53339785,0.31631696,0.14946991
0.42047983,0.021238709,0.23256055
0.2756039,-0.37397438,0.33482593
0.12646686,-0.71379375,0.26771426
-0.078063905,-1.1430953,0.15799204
-0.32733577,-1.4019545,0.07703193
-0.5712813,-1.3167334,0.03548662
-0.74811524,-1.2272512,0.067444555
-0.8546417,-1.3028849,0.01844239
-0.8642291,-1.286906,-0.110454604
-0.803509,-1.2474912,-0.16478309
-0.7225489,-1.3337777,-0.21378526
-0.64052355,-1.3252555,-0.31072432
-0.57021606,-1.0376341,-0.33096436
-0.48606017,-0.400606,-0.3586612
-0.3390537,0.35040542,-0.39274967
-0.17926402,1.0609368,-0.3565307
-0.064215474,1.4561499,-0.30965906
0.057224672,1.5903732,-0.22869895
0.21168801,1.4337794,-0.16478309
0.43539354,1.0960906,-0.16904415
0.7038402,0.7104648,-0.22443789
0.8657604,0.66039735,-0.25852636
0.88280463,1.1355053,-0.140282
0.7059707,1.8023609,-7.323693E-4
0.35123765,2.3009045,-0.083822995
-0.009886986,2.032458,0.009920275
-0.33053157,1.5115436,-0.10086723
-0.53186655,0.8936903,-0.18182732
-0.6032393,0.5400225,-0.19247997
-0.63093615,0.74774903,-0.23615581
-0.690591,1.0811768,-0.1583915
-0.76835525,1.4572152,-0.07530088
-0.7992479,1.2835771,0.039747678
-0.7939216,0.78716385,0.16864468
-0.8120311,0.5155214,0.22510369
-0.8482501,0.60393834,0.3923502
-0.86316377,0.9160608,0.560662
-0.8322711,1.1621369,0.56492305
-0.7768774,1.0534799,0.54468304
-0.69591725,0.90434295,0.5436177
-0.5808687,0.77757645,0.55320513
-0.4498412,0.73283535,0.6203168
-0.34864107,0.65613633,0.7066032
-0.28472522,0.4164518,0.8205865
-0.21761355,0.11711251,0.81952125
-0.15582821,0.1863547,0.7161906
-0.18245982,0.64228785,0.6767758
-0.25383255,1.0726547,0.62138206
-0.27726835,1.2835771,0.4104597
-0.18139456,1.1940949,0.13455622
0.021005683,0.73496586,-0.31818116
0.31501865,-0.019241339,-0.94668716
0.5653558,-0.18861838,-1.5879763
0.6942528,0.34934014,-2.0833244
0.6761433,0.79568595,-2.3570974
0.5749432,0.77970695,-2.6063693
0.50676626,0.707269,-2.8183568
0.43219775,0.8308397,-2.8247483
0.33738923,0.81379545,-2.6287396
0.18292588,0.6891595,-2.363489
0.021005683,0.6124605,-2.0886507
-0.111087106,0.6327005,-1.7253954
-0.21867882,0.63376576,-1.2375044
-0.3156179,0.46971503,-0.68995845
-0.3933822,0.058522966,-0.097671434
-0.43386224,-0.3558649,0.6085989
-0.3837948,-0.6402905,1.4991599
-0.29218206,-0.827777,2.4919863
-0.32733577,-1.0312425,3.3516548
-0.4700812,0.24174845,4.2688475
-0.45836332,0.7498796,4.9005494
-0.9611681,-2.2946463,4.428637
-1.0069745,-1.9377825,2.9756165
-0.92601436,-0.39527968,1.5652063
-0.5787382,1.0865031,-0.17223994
-0.13026187,1.57759,-1.3845109
0.23086278,0.8638629,-1.752027
0.4907873,0.059588227,-2.1301959
0.5887916,-0.20353208,-2.4540362
0.505701,0.1053946,-2.2047644
0.39917454,0.7008774,-1.9512315
0.36934716,1.0044777,-1.9384483
0.34058502,0.8553408,-1.933122
0.3171492,0.43988764,-1.7733324
0.2692123,0.24814004,-1.5656058
0.21062276,0.4590624,-1.2268517
0.18612167,0.6923553,-0.6867627
0.18931746,0.69022477,-0.016711336
0.13392371,0.19274628,0.9132645
0.03485412,-0.5444167,1.6941034
-0.03971439,-0.23442475,2.2736073
-0.17926402,0.6476142,3.3889391
-0.7907258,-1.5777231,4.249673
-1.1092398,-1.9899806,3.1300797
-1.1369368,-0.15772572,2.1351228
-0.9409281,1.2164654,1.2999555
-0.41575274,1.4209962,-0.031625036
0.06681205,0.33549172,-1.5656058
0.2724081,-0.38036597,-2.1760023
0.413023,-0.12683305,-2.0769327
0.48226517,0.56558883,-1.9522969
0.47480834,0.53256565,-1.7488313
0.39597875,0.052131377,-1.5890416
0.32141024,-0.15879098,-1.393033
0.27347335,-0.051199272,-0.96692723
0.29158285,-0.11831093,-0.48329717
0.34058502,-0.22270684,-0.0017976337
0.36721662,-0.3611912,0.34973964
0.525941,-1.0173941,0.9963551
0.7571034,-1.7737318,1.8528278
0.8050403,-2.8517795,1.8634803
0.65696853,-4.428371,2.9926608
0.5887916,-4.7660594,2.2714767
0.41834933,-2.1806629,1.0741194
0.014614096,0.47823715,0.34973964
-0.21761355,2.2689466,-0.3235075
-0.23039672,1.9504325,-1.2609402
-0.1771335,0.58369833,-1.8031598
-0.13771872,0.25240108,-1.9150126
-0.111087106,0.8244481,-1.6369785
-0.09510814,1.4753246,-1.3909024
-0.091912344,1.6841165,-1.3301824
-0.094042875,1.1930295,-1.0894326
-0.051432297,0.2758369,-0.73469955
0.13392371,-0.19181417,-0.34055173
0.23192804,0.55280566,0.21125525
0.39278296,2.0026305,1.1241869
0.71342754,2.1102223,2.2981083
0.20103537,-0.6552042,2.9841385
-0.28579047,-1.7875803,2.3673503
-0.71402675,0.5357614,1.9295268
-0.9718208,2.822884,2.373742
-1.0240188,3.672965,1.6600149
-0.7161573,2.511827,0.55320513
-0.18991667,0.6934206,-0.3586612
0.10516157,0.47078028,-1.1640011
0.32034498,0.7019427,-1.1576096
0.41408825,1.0428272,-0.76878804
0.54724634,1.3602761,-0.7837017
0.66229486,1.4976952,-0.4577308
0.74538547,1.6489627,0.05679191
0.8774783,1.3815814,0.30712906
0.8476509,0.2790327,0.70447266
0.2180796,-0.7276422,1.3308482
-0.22613567,0.16398415,1.2488228
-0.52973604,1.7874471,1.6142085
-0.4349275,2.0281968,1.5588148
-0.18885142,1.5807859,0.8088686
0.013548832,0.8979513,0.4583966
0.19783957,0.20552945,0.31671643
0.33951974,0.35892755,-0.004993427
0.34910712,1.3847772,0.046139266
0.25642914,1.9664116,0.27197534
0.1371195,1.2771854,0.26345322
0.16481638,-0.18116154,-0.0028628982
0.20529643,-1.1398995,-0.19887155
0.24684174,-0.9811751,-0.0326903
0.376804,-0.2482732,0.0599877
0.85723823,0.28648955,0.09088037
0.34058502,-0.13322464,0.33376065
-0.080194436,-0.64774734,0.28901955
-0.0844555,0.7189869,0.22510369
0.08918261,0.66998476,0.54681355
0.21701434,0.056392435,0.2336258
0.19464378,-0.4634566,0.19527629
0.16907744,-0.9492172,0.4466787
0.2574944,-1.1974238,0.40513337
0.2329933,-1.0738531,0.2879543
0.12007528,-1.9814584,0.53189987
0.13072792,-3.6102476,0.2698448
0.28412598,-3.8723028,-0.042277683
0.4726778,-1.6363127,0.2517353
0.8476509,0.93523556,0.33908698
0.6590991,0.22896527,0.31352064
0.3917177,-1.8685404,0.54681355
0.30543128,-1.9154121,-0.3554654
0.42687142,-1.2187291,-0.67184895
0.49824414,0.029760825,-0.3022022
0.49824414,0.47291082,-0.11897672
0.68466544,-0.17476994,-0.14986938
0.85830355,-0.77025276,-0.5024719
0.98933107,-1.3678662,-0.63349944
1.1192933,-2.2232735,-0.7783754
1.1523165,-1.9015635,-1.0393652
1.1682955,-0.5689178,-0.5376257
1.4069147,1.0928947,-0.5003414
1.7765615,0.86173236,-0.61538994
1.8628479,-1.750296,0.12070777
2.0844228,-2.5353959,-0.43855605
2.4775054,-2.0272648,-0.75493956
2.782171,-1.1356385,-0.16691361
3.028247,-0.8107328,-0.140282
3.2444959,-0.9918278,-0.045473475
3.4128077,-1.3007544,0.3081943
3.5065508,-1.3327124,0.7247127
3.6418395,-1.3774534,1.0837069
3.881524,-1.5692011,1.3468271
4.1947117,-1.673597,1.5843811
4.4748764,-1.6597486,1.7761286
4.6964517,-1.677858,1.8762635
4.8977866,-1.6789234,1.865611
5.0415974,-1.5819843,1.7889118
5.121492,-1.3806493,1.7036908
5.1204267,-1.1675963,1.6163391
5.060772,-0.97691405,1.5012904
4.959572,-0.93856454,1.4256567
4.8775463,-1.1111374,1.3873072
4.8040433,-1.4094114,1.3649366
4.7039084,-1.6704012,1.3521534
4.5803375,-1.8131466,1.3979598
4.4343963,-1.7705361,1.5066168
4.182994,-1.2954282,1.6035559
3.7920418,-0.5593304,1.7399096
3.2700622,-0.23655528,1.8890467
2.6671226,-0.4964798,1.833653
2.0354207,-1.2901018,1.6078169
1.371761,-1.7566876,1.3510882
0.7187539,-1.3422997,1.1465575
0.17440376,-0.68929267,0.9377656
-0.22080934,-0.45280397,0.6980811
-0.47860333,-0.73829484,0.52657354
-0.61921823,-0.9172593,0.40832916
-0.5957824,-0.9715877,0.3721102
-0.4104264,-1.024851,0.3508049
-0.195243,-1.0759836,0.2485395
-0.009886986,-1.1196595,0.23469107
0.12327107,-1.3305819,0.28049743
0.15096794,-1.7162076,0.24001738
0.059355203,-2.2232735,0.10259828
-0.08978182,-2.656836,0.019507654
-0.23039672,-3.1223567,-0.23402528
-0.38912112,-3.9223702,-0.5781057
